obs;theta;resp;error;rt;block;delta;trial;study;experiment;stimulus
1;152;163;11;3.30428829998709;1;NaN;1;Houborg et al. (2023);Experiment 2;Orientation
1;58;63;5;2.36623559996951;1;-86;2;Houborg et al. (2023);Experiment 2;Orientation
1;124;120;-4;3.13873240002431;1;-66;3;Houborg et al. (2023);Experiment 2;Orientation
1;158;152;-6;1.82335950003471;1;-34;4;Houborg et al. (2023);Experiment 2;Orientation
1;71;16;-55;2.55534299998544;1;87;5;Houborg et al. (2023);Experiment 2;Orientation
1;41;25;-16;2.8226572999265;1;30;6;Houborg et al. (2023);Experiment 2;Orientation
1;87;69;-18;1.4530258999439;1;-46;7;Houborg et al. (2023);Experiment 2;Orientation
1;172;169;-3;2.25791489996482;1;-85;8;Houborg et al. (2023);Experiment 2;Orientation
1;55;74;19;2.12368179997429;1;-63;9;Houborg et al. (2023);Experiment 2;Orientation
1;2;0;-2;1.83738280006219;1;53;10;Houborg et al. (2023);Experiment 2;Orientation
1;106;117;11;2.42357230000198;1;76;11;Houborg et al. (2023);Experiment 2;Orientation
1;44;25;-19;1.58928710001055;1;62;12;Houborg et al. (2023);Experiment 2;Orientation
1;102;105;3;1.62378440005705;1;-58;13;Houborg et al. (2023);Experiment 2;Orientation
1;175;169;-6;12.0051944999723;1;-73;14;Houborg et al. (2023);Experiment 2;Orientation
1;114;117;3;1.42197650007438;1;61;15;Houborg et al. (2023);Experiment 2;Orientation
1;54;65;11;1.50607080000918;1;60;16;Houborg et al. (2023);Experiment 2;Orientation
1;45;37;-8;2.17252170003485;1;9;17;Houborg et al. (2023);Experiment 2;Orientation
1;140;141;1;1.85618410003372;1;85;18;Houborg et al. (2023);Experiment 2;Orientation
1;162;152;-10;1.65596440003719;1;-22;19;Houborg et al. (2023);Experiment 2;Orientation
1;47;72;25;1.88982490007766;1;-65;20;Houborg et al. (2023);Experiment 2;Orientation
1;12;17;5;2.43929180002306;2;35;21;Houborg et al. (2023);Experiment 2;Orientation
1;75;67;-8;2.29101470008027;2;-63;22;Houborg et al. (2023);Experiment 2;Orientation
1;153;150;-3;2.03819180000573;2;-78;23;Houborg et al. (2023);Experiment 2;Orientation
1;23;17;-6;1.63939529994968;2;-50;24;Houborg et al. (2023);Experiment 2;Orientation
1;171;171;0;3.19020930002443;2;32;25;Houborg et al. (2023);Experiment 2;Orientation
1;90;25;-65;2.94035499996971;2;81;26;Houborg et al. (2023);Experiment 2;Orientation
1;176;178;2;2.99013599997852;2;-86;27;Houborg et al. (2023);Experiment 2;Orientation
1;158;155;-3;2.54053369991016;2;18;28;Houborg et al. (2023);Experiment 2;Orientation
1;110;110;0;1.57255839998834;2;48;29;Houborg et al. (2023);Experiment 2;Orientation
1;129;125;-4;1.58898659993429;2;-19;30;Houborg et al. (2023);Experiment 2;Orientation
1;16;8;-8;2.28956699999981;2;-67;31;Houborg et al. (2023);Experiment 2;Orientation
1;148;158;10;2.02247719990555;2;48;32;Houborg et al. (2023);Experiment 2;Orientation
1;75;70;-5;1.67298979999032;2;73;33;Houborg et al. (2023);Experiment 2;Orientation
1;149;151;2;1.88990439998452;2;-74;34;Houborg et al. (2023);Experiment 2;Orientation
1;149;158;9;1.94022560003214;2;0;35;Houborg et al. (2023);Experiment 2;Orientation
1;129;148;19;1.55712969996966;2;20;36;Houborg et al. (2023);Experiment 2;Orientation
1;109;109;0;1.84012129995972;2;20;37;Houborg et al. (2023);Experiment 2;Orientation
1;173;163;-10;1.55640470003709;2;-64;38;Houborg et al. (2023);Experiment 2;Orientation
1;112;123;11;1.74041450000368;2;61;39;Houborg et al. (2023);Experiment 2;Orientation
1;154;155;1;2.18939860002138;2;-42;40;Houborg et al. (2023);Experiment 2;Orientation
1;176;152;-24;1.4575834000716;3;-22;41;Houborg et al. (2023);Experiment 2;Orientation
1;106;111;5;2.98979330004659;3;70;42;Houborg et al. (2023);Experiment 2;Orientation
1;26;19;-7;1.34027029993013;3;80;43;Houborg et al. (2023);Experiment 2;Orientation
1;72;67;-5;2.03907670010813;3;-46;44;Houborg et al. (2023);Experiment 2;Orientation
1;171;15;24;1.57401219999883;3;81;45;Houborg et al. (2023);Experiment 2;Orientation
1;23;7;-16;1.13738890003879;3;-32;46;Houborg et al. (2023);Experiment 2;Orientation
1;43;23;-20;1.75741239998024;3;-20;47;Houborg et al. (2023);Experiment 2;Orientation
1;10;12;2;2.42418070009444;3;33;48;Houborg et al. (2023);Experiment 2;Orientation
1;136;152;16;1.93835259997286;3;54;49;Houborg et al. (2023);Experiment 2;Orientation
1;116;116;0;1.68925809999928;3;20;50;Houborg et al. (2023);Experiment 2;Orientation
1;18;26;8;1.63886189996265;3;-82;51;Houborg et al. (2023);Experiment 2;Orientation
1;77;76;-1;1.555645299959;3;-59;52;Houborg et al. (2023);Experiment 2;Orientation
1;127;111;-16;2.65679549996275;3;-50;53;Houborg et al. (2023);Experiment 2;Orientation
1;137;132;-5;1.8724363000365;3;-10;54;Houborg et al. (2023);Experiment 2;Orientation
1;34;36;2;1.08748170000035;3;-77;55;Houborg et al. (2023);Experiment 2;Orientation
1;42;33;-9;1.35572790005244;3;-8;56;Houborg et al. (2023);Experiment 2;Orientation
1;34;29;-5;1.47332349990029;3;8;57;Houborg et al. (2023);Experiment 2;Orientation
1;66;75;9;3.39007680001669;3;-32;58;Houborg et al. (2023);Experiment 2;Orientation
1;121;117;-4;1.15453279996291;3;-55;59;Houborg et al. (2023);Experiment 2;Orientation
1;161;167;6;1.08993529994041;3;-40;60;Houborg et al. (2023);Experiment 2;Orientation
1;56;27;-29;1.69011249998584;4;-75;61;Houborg et al. (2023);Experiment 2;Orientation
1;31;12;-19;1.65254130004905;4;25;62;Houborg et al. (2023);Experiment 2;Orientation
1;48;50;2;1.67284759995528;4;-17;63;Houborg et al. (2023);Experiment 2;Orientation
1;103;109;6;2.00698259996716;4;-55;64;Houborg et al. (2023);Experiment 2;Orientation
1;55;69;14;1.83946559997275;4;48;65;Houborg et al. (2023);Experiment 2;Orientation
1;25;14;-11;1.78997689997777;4;30;66;Houborg et al. (2023);Experiment 2;Orientation
1;164;171;7;1.94142889999785;4;41;67;Houborg et al. (2023);Experiment 2;Orientation
1;105;108;3;2.55736029997934;4;59;68;Houborg et al. (2023);Experiment 2;Orientation
1;9;13;4;2.2217220000457;4;-84;69;Houborg et al. (2023);Experiment 2;Orientation
1;151;164;13;1.22213330003433;4;38;70;Houborg et al. (2023);Experiment 2;Orientation
1;165;160;-5;2.62289650004823;4;-14;71;Houborg et al. (2023);Experiment 2;Orientation
1;131;124;-7;1.93977309996262;4;34;72;Houborg et al. (2023);Experiment 2;Orientation
1;129;141;12;1.33983710000757;4;2;73;Houborg et al. (2023);Experiment 2;Orientation
1;172;174;2;4.17487160000019;4;-43;74;Houborg et al. (2023);Experiment 2;Orientation
1;154;150;-4;1.48779270006344;4;18;75;Houborg et al. (2023);Experiment 2;Orientation
1;163;163;0;1.52290269988589;4;-9;76;Houborg et al. (2023);Experiment 2;Orientation
1;13;18;5;1.53895820002072;4;-30;77;Houborg et al. (2023);Experiment 2;Orientation
1;3;18;15;1.55533749994356;4;10;78;Houborg et al. (2023);Experiment 2;Orientation
1;55;25;-30;1.38979100005236;4;-52;79;Houborg et al. (2023);Experiment 2;Orientation
1;46;52;6;3.92316760006361;4;9;80;Houborg et al. (2023);Experiment 2;Orientation
1;12;15;3;1.59069129999261;5;34;81;Houborg et al. (2023);Experiment 2;Orientation
1;144;159;15;1.09086120000575;5;48;82;Houborg et al. (2023);Experiment 2;Orientation
1;135;140;5;1.32316849997733;5;9;83;Houborg et al. (2023);Experiment 2;Orientation
1;48;24;-24;1.58975249994546;5;87;84;Houborg et al. (2023);Experiment 2;Orientation
1;128;147;19;1.25734050001483;5;-80;85;Houborg et al. (2023);Experiment 2;Orientation
1;160;165;5;1.85597549995873;5;-32;86;Houborg et al. (2023);Experiment 2;Orientation
1;146;148;2;1.80765720002819;5;14;87;Houborg et al. (2023);Experiment 2;Orientation
1;148;176;28;1.63805780000985;5;-2;88;Houborg et al. (2023);Experiment 2;Orientation
1;123;128;5;1.18826040008571;5;25;89;Houborg et al. (2023);Experiment 2;Orientation
1;18;163;-35;1.7905965000391;5;-75;90;Houborg et al. (2023);Experiment 2;Orientation
1;141;158;17;1.189955299953;5;57;91;Houborg et al. (2023);Experiment 2;Orientation
1;25;17;-8;1.53181010007393;5;-64;92;Houborg et al. (2023);Experiment 2;Orientation
1;121;124;3;2.2214999999851;5;84;93;Houborg et al. (2023);Experiment 2;Orientation
1;174;170;-4;2.55530499992892;5;-53;94;Houborg et al. (2023);Experiment 2;Orientation
1;24;20;-4;2.02127679996192;5;-30;95;Houborg et al. (2023);Experiment 2;Orientation
1;114;118;4;3.60502340004314;5;-90;96;Houborg et al. (2023);Experiment 2;Orientation
1;130;119;-11;1.65609749988653;5;-16;97;Houborg et al. (2023);Experiment 2;Orientation
1;65;62;-3;1.77009490004275;5;65;98;Houborg et al. (2023);Experiment 2;Orientation
1;75;72;-3;2.02160620002542;5;-10;99;Houborg et al. (2023);Experiment 2;Orientation
1;172;173;1;1.80715220002457;5;83;100;Houborg et al. (2023);Experiment 2;Orientation
1;62;17;-45;3.69013130001258;6;-70;101;Houborg et al. (2023);Experiment 2;Orientation
1;123;118;-5;1.82411829999182;6;-61;102;Houborg et al. (2023);Experiment 2;Orientation
1;19;11;-8;1.47309490002226;6;-76;103;Houborg et al. (2023);Experiment 2;Orientation
1;143;170;27;3.05698239989579;6;56;104;Houborg et al. (2023);Experiment 2;Orientation
1;48;20;-28;1.59059989999514;6;-85;105;Houborg et al. (2023);Experiment 2;Orientation
1;95;104;9;2.48950989998411;6;-47;106;Houborg et al. (2023);Experiment 2;Orientation
1;28;16;-12;3.03891710005701;6;67;107;Houborg et al. (2023);Experiment 2;Orientation
1;113;112;-1;2.00649059994612;6;-85;108;Houborg et al. (2023);Experiment 2;Orientation
1;17;11;-6;2.35426120006014;6;-84;109;Houborg et al. (2023);Experiment 2;Orientation
1;17;16;-1;2.17373679997399;6;0;110;Houborg et al. (2023);Experiment 2;Orientation
1;153;151;-2;1.63952379999682;6;44;111;Houborg et al. (2023);Experiment 2;Orientation
1;49;110;61;3.50483480002731;6;-76;112;Houborg et al. (2023);Experiment 2;Orientation
1;151;156;5;1.68878299999051;6;78;113;Houborg et al. (2023);Experiment 2;Orientation
1;27;19;-8;1.88873949996196;6;-56;114;Houborg et al. (2023);Experiment 2;Orientation
1;69;72;3;1.57159669999965;6;-42;115;Houborg et al. (2023);Experiment 2;Orientation
1;1;2;1;1.62068100005854;6;68;116;Houborg et al. (2023);Experiment 2;Orientation
1;83;159;76;2.95624229998793;6;-82;117;Houborg et al. (2023);Experiment 2;Orientation
1;6;6;0;2.59085809998214;6;77;118;Houborg et al. (2023);Experiment 2;Orientation
1;24;12;-12;2.20298289996572;6;-18;119;Houborg et al. (2023);Experiment 2;Orientation
1;152;166;14;1.59136890002992;6;52;120;Houborg et al. (2023);Experiment 2;Orientation
1;25;23;-2;2.22219890006818;7;-53;121;Houborg et al. (2023);Experiment 2;Orientation
1;98;103;5;4.03669729991816;7;-73;122;Houborg et al. (2023);Experiment 2;Orientation
1;84;79;-5;1.76875489996746;7;14;123;Houborg et al. (2023);Experiment 2;Orientation
1;169;168;-1;1.93865660007577;7;-85;124;Houborg et al. (2023);Experiment 2;Orientation
1;120;60;-60;1.3402995999204;7;49;125;Houborg et al. (2023);Experiment 2;Orientation
1;168;169;1;3.28923130000476;7;-48;126;Houborg et al. (2023);Experiment 2;Orientation
1;69;61;-8;2.92236780002713;7;-81;127;Houborg et al. (2023);Experiment 2;Orientation
1;133;137;4;1.84212139993906;7;-64;128;Houborg et al. (2023);Experiment 2;Orientation
1;98;121;23;1.73855419992469;7;35;129;Houborg et al. (2023);Experiment 2;Orientation
1;126;130;4;1.35682350001298;7;-28;130;Houborg et al. (2023);Experiment 2;Orientation
1;142;143;1;1.63813089998439;7;-16;131;Houborg et al. (2023);Experiment 2;Orientation
1;158;165;7;1.75529020000249;7;-16;132;Houborg et al. (2023);Experiment 2;Orientation
1;101;107;6;1.32126130000688;7;57;133;Houborg et al. (2023);Experiment 2;Orientation
1;26;16;-10;1.2729559999425;7;75;134;Houborg et al. (2023);Experiment 2;Orientation
1;13;16;3;1.35905969992746;7;13;135;Houborg et al. (2023);Experiment 2;Orientation
1;23;8;-15;1.17533500003628;7;-10;136;Houborg et al. (2023);Experiment 2;Orientation
1;108;113;5;1.50541740003973;7;-85;137;Houborg et al. (2023);Experiment 2;Orientation
1;34;63;29;1.43760539998766;7;74;138;Houborg et al. (2023);Experiment 2;Orientation
1;122;119;-3;2.15678239997942;7;-88;139;Houborg et al. (2023);Experiment 2;Orientation
1;101;105;4;1.53809169994202;7;21;140;Houborg et al. (2023);Experiment 2;Orientation
1;151;161;10;1.95567209995352;8;-50;141;Houborg et al. (2023);Experiment 2;Orientation
1;81;74;-7;1.7049520999426;8;70;142;Houborg et al. (2023);Experiment 2;Orientation
1;163;163;0;1.38972759991884;8;-82;143;Houborg et al. (2023);Experiment 2;Orientation
1;177;171;-6;1.53937469993252;8;-14;144;Houborg et al. (2023);Experiment 2;Orientation
1;158;167;9;2.18749809998553;8;19;145;Houborg et al. (2023);Experiment 2;Orientation
1;127;132;5;1.52062630001456;8;31;146;Houborg et al. (2023);Experiment 2;Orientation
1;149;162;13;1.48795209999662;8;-22;147;Houborg et al. (2023);Experiment 2;Orientation
1;131;136;5;1.43921500002034;8;18;148;Houborg et al. (2023);Experiment 2;Orientation
1;176;172;-4;2.27132800000254;8;-45;149;Houborg et al. (2023);Experiment 2;Orientation
1;61;47;-14;2.20680919999722;8;-65;150;Houborg et al. (2023);Experiment 2;Orientation
1;149;161;12;1.73675120004918;8;-88;151;Houborg et al. (2023);Experiment 2;Orientation
1;7;9;2;5.39025179995224;8;-38;152;Houborg et al. (2023);Experiment 2;Orientation
1;18;20;2;1.52498169988394;8;-11;153;Houborg et al. (2023);Experiment 2;Orientation
1;29;26;-3;2.33748680003919;8;-11;154;Houborg et al. (2023);Experiment 2;Orientation
1;59;65;6;2.95587700000033;8;-30;155;Houborg et al. (2023);Experiment 2;Orientation
1;62;154;-88;1.83876219997182;8;-3;156;Houborg et al. (2023);Experiment 2;Orientation
1;14;13;-1;1.90588830003981;8;48;157;Houborg et al. (2023);Experiment 2;Orientation
1;91;110;19;2.15519149997272;8;-77;158;Houborg et al. (2023);Experiment 2;Orientation
1;119;126;7;1.23881990008522;8;-28;159;Houborg et al. (2023);Experiment 2;Orientation
1;76;114;38;3.77415089996066;8;43;160;Houborg et al. (2023);Experiment 2;Orientation
1;165;171;6;2.32172550004907;9;-89;161;Houborg et al. (2023);Experiment 2;Orientation
1;106;103;-3;2.27370320004411;9;59;162;Houborg et al. (2023);Experiment 2;Orientation
1;38;46;8;2.40655640000477;9;68;163;Houborg et al. (2023);Experiment 2;Orientation
1;130;156;26;1.60649110004306;9;88;164;Houborg et al. (2023);Experiment 2;Orientation
1;88;87;-1;2.83892020001076;9;42;165;Houborg et al. (2023);Experiment 2;Orientation
1;120;132;12;1.50420819991268;9;-32;166;Houborg et al. (2023);Experiment 2;Orientation
1;173;179;6;1.77556310000364;9;-53;167;Houborg et al. (2023);Experiment 2;Orientation
1;33;22;-11;2.25642019999214;9;-40;168;Houborg et al. (2023);Experiment 2;Orientation
1;112;131;19;1.17248379997909;9;-79;169;Houborg et al. (2023);Experiment 2;Orientation
1;12;9;-3;1.17141290009022;9;-80;170;Houborg et al. (2023);Experiment 2;Orientation
1;89;1;-88;1.00491699995473;9;-77;171;Houborg et al. (2023);Experiment 2;Orientation
1;109;121;12;1.12223070010077;9;-20;172;Houborg et al. (2023);Experiment 2;Orientation
1;126;137;11;1.3563289999729;9;-17;173;Houborg et al. (2023);Experiment 2;Orientation
1;106;131;25;1.45583510003053;9;20;174;Houborg et al. (2023);Experiment 2;Orientation
1;38;26;-12;2.32174290006515;9;68;175;Houborg et al. (2023);Experiment 2;Orientation
1;40;36;-4;1.57329319999553;9;-2;176;Houborg et al. (2023);Experiment 2;Orientation
1;155;163;8;1.87245499994606;9;65;177;Houborg et al. (2023);Experiment 2;Orientation
1;143;151;8;1.90128859994002;9;12;178;Houborg et al. (2023);Experiment 2;Orientation
1;4;179;-5;1.3716253999155;9;-41;179;Houborg et al. (2023);Experiment 2;Orientation
1;52;49;-3;3.00681940000504;9;-48;180;Houborg et al. (2023);Experiment 2;Orientation
1;23;24;1;1.9893850000808;10;29;181;Houborg et al. (2023);Experiment 2;Orientation
1;150;154;4;1.14003719994798;10;53;182;Houborg et al. (2023);Experiment 2;Orientation
1;78;60;-18;1.15843870001845;10;72;183;Houborg et al. (2023);Experiment 2;Orientation
1;169;166;-3;1.85703069996089;10;89;184;Houborg et al. (2023);Experiment 2;Orientation
1;63;61;-2;1.77283509995323;10;-74;185;Houborg et al. (2023);Experiment 2;Orientation
1;123;132;9;2.556314400048;10;-60;186;Houborg et al. (2023);Experiment 2;Orientation
1;43;40;-3;1.78946020000149;10;80;187;Houborg et al. (2023);Experiment 2;Orientation
1;54;36;-18;0.973859300022013;10;-11;188;Houborg et al. (2023);Experiment 2;Orientation
1;5;10;5;1.60534580005333;10;49;189;Houborg et al. (2023);Experiment 2;Orientation
1;125;123;-2;1.38908150000498;10;60;190;Houborg et al. (2023);Experiment 2;Orientation
1;39;122;83;1.32181349990424;10;86;191;Houborg et al. (2023);Experiment 2;Orientation
1;121;130;9;2.43890720000491;10;-82;192;Houborg et al. (2023);Experiment 2;Orientation
1;146;148;2;1.33916420000605;10;-25;193;Houborg et al. (2023);Experiment 2;Orientation
1;17;14;-3;1.42253500001971;10;-51;194;Houborg et al. (2023);Experiment 2;Orientation
1;82;63;-19;1.33765290002339;10;-65;195;Houborg et al. (2023);Experiment 2;Orientation
1;67;63;-4;1.40792799997143;10;15;196;Houborg et al. (2023);Experiment 2;Orientation
1;41;42;1;1.65473209996708;10;26;197;Houborg et al. (2023);Experiment 2;Orientation
1;132;135;3;2.04353449994233;10;89;198;Houborg et al. (2023);Experiment 2;Orientation
1;27;10;-17;1.85769319999963;10;-75;199;Houborg et al. (2023);Experiment 2;Orientation
1;62;64;2;1.43793979997281;10;-35;200;Houborg et al. (2023);Experiment 2;Orientation
3;132;135;3;1.54452279999896;1;NaN;1;Houborg et al. (2023);Experiment 2;Orientation
3;113;126;13;1.22837190000064;1;19;2;Houborg et al. (2023);Experiment 2;Orientation
3;39;39;0;1.86210029999893;1;74;3;Houborg et al. (2023);Experiment 2;Orientation
3;57;55;-2;1.76208869999937;1;-18;4;Houborg et al. (2023);Experiment 2;Orientation
3;153;137;-16;1.29471190000004;1;84;5;Houborg et al. (2023);Experiment 2;Orientation
3;40;34;-6;1.71220529999846;1;-67;6;Houborg et al. (2023);Experiment 2;Orientation
3;49;45;-4;1.86225279999962;1;-9;7;Houborg et al. (2023);Experiment 2;Orientation
3;95;105;10;1.5118180999998;1;-46;8;Houborg et al. (2023);Experiment 2;Orientation
3;166;37;51;5.13163329999952;1;-71;9;Houborg et al. (2023);Experiment 2;Orientation
3;169;160;-9;1.39518449999923;1;-3;10;Houborg et al. (2023);Experiment 2;Orientation
3;106;117;11;2.42932960000144;1;63;11;Houborg et al. (2023);Experiment 2;Orientation
3;169;151;-18;1.72845000000052;1;-63;12;Houborg et al. (2023);Experiment 2;Orientation
3;118;129;11;1.71191659999931;1;51;13;Houborg et al. (2023);Experiment 2;Orientation
3;92;99;7;4.39769630000046;1;26;14;Houborg et al. (2023);Experiment 2;Orientation
3;100;108;8;2.87973889999921;1;-8;15;Houborg et al. (2023);Experiment 2;Orientation
3;164;161;-3;2.7296484999988;1;-64;16;Houborg et al. (2023);Experiment 2;Orientation
3;146;151;5;1.47862010000063;1;18;17;Houborg et al. (2023);Experiment 2;Orientation
3;72;55;-17;1.57854700000098;1;74;18;Houborg et al. (2023);Experiment 2;Orientation
3;69;64;-5;1.94567520000055;1;3;19;Houborg et al. (2023);Experiment 2;Orientation
3;106;107;1;2.07907999999952;1;-37;20;Houborg et al. (2023);Experiment 2;Orientation
3;4;26;22;2.99667919999956;2;-78;21;Houborg et al. (2023);Experiment 2;Orientation
3;24;26;2;4.13065660000029;2;-20;22;Houborg et al. (2023);Experiment 2;Orientation
3;174;162;-12;2.09559679999984;2;30;23;Houborg et al. (2023);Experiment 2;Orientation
3;107;125;18;1.52859759999956;2;67;24;Houborg et al. (2023);Experiment 2;Orientation
3;160;158;-2;3.29656179999984;2;-53;25;Houborg et al. (2023);Experiment 2;Orientation
3;84;68;-16;1.29511260000072;2;76;26;Houborg et al. (2023);Experiment 2;Orientation
3;149;151;2;2.31269780000002;2;-65;27;Houborg et al. (2023);Experiment 2;Orientation
3;65;56;-9;1.1615055000002;2;84;28;Houborg et al. (2023);Experiment 2;Orientation
3;105;155;50;8.26753049999934;2;-40;29;Houborg et al. (2023);Experiment 2;Orientation
3;129;132;3;0.978084899999885;2;-24;30;Houborg et al. (2023);Experiment 2;Orientation
3;60;71;11;2.7963366999993;2;69;31;Houborg et al. (2023);Experiment 2;Orientation
3;152;145;-7;1.16145030000007;2;88;32;Houborg et al. (2023);Experiment 2;Orientation
3;173;168;-5;2.67952530000002;2;-21;33;Houborg et al. (2023);Experiment 2;Orientation
3;63;53;-10;2.49573569999848;2;-70;34;Houborg et al. (2023);Experiment 2;Orientation
3;69;67;-2;1.34505680000075;2;-6;35;Houborg et al. (2023);Experiment 2;Orientation
3;124;133;9;1.67862289999903;2;-55;36;Houborg et al. (2023);Experiment 2;Orientation
3;41;41;0;2.37925089999953;2;83;37;Houborg et al. (2023);Experiment 2;Orientation
3;31;45;14;1.37852349999957;2;10;38;Houborg et al. (2023);Experiment 2;Orientation
3;170;157;-13;1.66204090000065;2;41;39;Houborg et al. (2023);Experiment 2;Orientation
3;86;72;-14;1.14494560000094;2;84;40;Houborg et al. (2023);Experiment 2;Orientation
3;172;163;-9;1.92885129999922;3;-86;41;Houborg et al. (2023);Experiment 2;Orientation
3;59;58;-1;1.39502390000052;3;-67;42;Houborg et al. (2023);Experiment 2;Orientation
3;156;150;-6;1.29512160000013;3;83;43;Houborg et al. (2023);Experiment 2;Orientation
3;24;25;1;1.77878149999924;3;-48;44;Houborg et al. (2023);Experiment 2;Orientation
3;173;155;-18;3.74717989999954;3;31;45;Houborg et al. (2023);Experiment 2;Orientation
3;122;129;7;1.66218359999948;3;51;46;Houborg et al. (2023);Experiment 2;Orientation
3;39;42;3;1.22830570000042;3;83;47;Houborg et al. (2023);Experiment 2;Orientation
3;63;59;-4;2.37918929999978;3;-24;48;Houborg et al. (2023);Experiment 2;Orientation
3;80;49;-31;1.21168439999929;3;-17;49;Houborg et al. (2023);Experiment 2;Orientation
3;51;49;-2;1.47853489999943;3;29;50;Houborg et al. (2023);Experiment 2;Orientation
3;54;53;-1;2.72973660000025;3;-3;51;Houborg et al. (2023);Experiment 2;Orientation
3;154;142;-12;4.83139269999992;3;80;52;Houborg et al. (2023);Experiment 2;Orientation
3;87;74;-13;2.46276399999988;3;67;53;Houborg et al. (2023);Experiment 2;Orientation
3;119;139;20;2.54609410000012;3;-32;54;Houborg et al. (2023);Experiment 2;Orientation
3;123;117;-6;2.56273909999982;3;-4;55;Houborg et al. (2023);Experiment 2;Orientation
3;73;56;-17;1.06142940000063;3;50;56;Houborg et al. (2023);Experiment 2;Orientation
3;35;48;13;1.36179390000143;3;38;57;Houborg et al. (2023);Experiment 2;Orientation
3;146;129;-17;1.17823669999962;3;69;58;Houborg et al. (2023);Experiment 2;Orientation
3;145;147;2;1.01167799999894;3;1;59;Houborg et al. (2023);Experiment 2;Orientation
3;141;137;-4;1.6118860000006;3;4;60;Houborg et al. (2023);Experiment 2;Orientation
3;67;74;7;1.76202159999957;4;74;61;Houborg et al. (2023);Experiment 2;Orientation
3;108;119;11;1.86226220000026;4;-41;62;Houborg et al. (2023);Experiment 2;Orientation
3;114;112;-2;8.83461279999938;4;-6;63;Houborg et al. (2023);Experiment 2;Orientation
3;100;115;15;1.56192699999883;4;14;64;Houborg et al. (2023);Experiment 2;Orientation
3;49;60;11;3.5635972;4;51;65;Houborg et al. (2023);Experiment 2;Orientation
3;2;16;14;1.49511710000115;4;47;66;Houborg et al. (2023);Experiment 2;Orientation
3;11;23;12;2.12903800000095;4;-9;67;Houborg et al. (2023);Experiment 2;Orientation
3;125;128;3;1.31168669999897;4;66;68;Houborg et al. (2023);Experiment 2;Orientation
3;55;58;3;1.62875469999926;4;70;69;Houborg et al. (2023);Experiment 2;Orientation
3;128;121;-7;2.07910810000067;4;-73;70;Houborg et al. (2023);Experiment 2;Orientation
3;55;52;-3;1.59537640000053;4;73;71;Houborg et al. (2023);Experiment 2;Orientation
3;133;124;-9;2.91303139999945;4;-78;72;Houborg et al. (2023);Experiment 2;Orientation
3;103;110;7;1.22834580000017;4;30;73;Houborg et al. (2023);Experiment 2;Orientation
3;84;64;-20;2.09583969999949;4;19;74;Houborg et al. (2023);Experiment 2;Orientation
3;105;117;12;1.82878669999991;4;-21;75;Houborg et al. (2023);Experiment 2;Orientation
3;20;30;10;2.21247570000014;4;85;76;Houborg et al. (2023);Experiment 2;Orientation
3;57;36;-21;1.59534709999934;4;-37;77;Houborg et al. (2023);Experiment 2;Orientation
3;42;36;-6;1.2450170000011;4;15;78;Houborg et al. (2023);Experiment 2;Orientation
3;122;137;15;2.19582129999981;4;-80;79;Houborg et al. (2023);Experiment 2;Orientation
3;167;159;-8;2.24583700000039;4;-45;80;Houborg et al. (2023);Experiment 2;Orientation
3;1;10;9;4.74782369999957;5;-14;81;Houborg et al. (2023);Experiment 2;Orientation
3;124;137;13;5.73103130000163;5;57;82;Houborg et al. (2023);Experiment 2;Orientation
3;61;58;-3;2.01222589999998;5;63;83;Houborg et al. (2023);Experiment 2;Orientation
3;143;140;-3;1.19499610000094;5;-82;84;Houborg et al. (2023);Experiment 2;Orientation
3;113;117;4;1.84565090000069;5;30;85;Houborg et al. (2023);Experiment 2;Orientation
3;85;72;-13;1.26176359999954;5;28;86;Houborg et al. (2023);Experiment 2;Orientation
3;98;121;23;1.46175089999997;5;-13;87;Houborg et al. (2023);Experiment 2;Orientation
3;178;166;-12;1.52861109999867;5;-80;88;Houborg et al. (2023);Experiment 2;Orientation
3;87;70;-17;1.5789109999987;5;-89;89;Houborg et al. (2023);Experiment 2;Orientation
3;65;66;1;1.84560549999878;5;22;90;Houborg et al. (2023);Experiment 2;Orientation
3;20;28;8;2.06231240000125;5;45;91;Houborg et al. (2023);Experiment 2;Orientation
3;78;46;-32;6.08226040000045;5;-58;92;Houborg et al. (2023);Experiment 2;Orientation
3;83;61;-22;2.01238059999923;5;-5;93;Houborg et al. (2023);Experiment 2;Orientation
3;173;26;33;1.37830360000044;5;-90;94;Houborg et al. (2023);Experiment 2;Orientation
3;3;13;10;1.64544860000024;5;-10;95;Houborg et al. (2023);Experiment 2;Orientation
3;47;29;-18;1.66209720000006;5;-44;96;Houborg et al. (2023);Experiment 2;Orientation
3;180;6;6;2.46263109999927;5;47;97;Houborg et al. (2023);Experiment 2;Orientation
3;114;126;12;1.29514999999992;5;66;98;Houborg et al. (2023);Experiment 2;Orientation
3;43;50;7;2.44594520000101;5;71;99;Houborg et al. (2023);Experiment 2;Orientation
3;65;61;-4;1.26152990000082;5;-22;100;Houborg et al. (2023);Experiment 2;Orientation
3;112;122;10;1.59528000000137;6;-47;101;Houborg et al. (2023);Experiment 2;Orientation
3;2;169;-13;4.31407919999947;6;-70;102;Houborg et al. (2023);Experiment 2;Orientation
3;86;69;-17;1.12835019999875;6;-84;103;Houborg et al. (2023);Experiment 2;Orientation
3;175;156;-19;1.22836580000148;6;-89;104;Houborg et al. (2023);Experiment 2;Orientation
3;35;32;-3;2.37941870000031;6;-40;105;Houborg et al. (2023);Experiment 2;Orientation
3;81;71;-10;1.46192770000016;6;-46;106;Houborg et al. (2023);Experiment 2;Orientation
3;169;159;-10;1.81217610000022;6;-88;107;Houborg et al. (2023);Experiment 2;Orientation
3;21;58;37;4.29744140000003;6;-32;108;Houborg et al. (2023);Experiment 2;Orientation
3;139;145;6;1.91223300000092;6;62;109;Houborg et al. (2023);Experiment 2;Orientation
3;35;68;33;7.78383869999925;6;-76;110;Houborg et al. (2023);Experiment 2;Orientation
3;125;125;0;1.06165549999969;6;-90;111;Houborg et al. (2023);Experiment 2;Orientation
3;41;36;-5;1.51203630000055;6;84;112;Houborg et al. (2023);Experiment 2;Orientation
3;158;155;-3;1.21189380000033;6;63;113;Houborg et al. (2023);Experiment 2;Orientation
3;66;59;-7;2.1457104000001;6;-88;114;Houborg et al. (2023);Experiment 2;Orientation
3;144;137;-7;1.8619548000006;6;-78;115;Houborg et al. (2023);Experiment 2;Orientation
3;83;61;-22;1.42832260000068;6;61;116;Houborg et al. (2023);Experiment 2;Orientation
3;169;165;-4;2.0457181999991;6;-86;117;Houborg et al. (2023);Experiment 2;Orientation
3;143;153;10;5.98238780000065;6;26;118;Houborg et al. (2023);Experiment 2;Orientation
3;133;147;14;1.64531780000107;6;10;119;Houborg et al. (2023);Experiment 2;Orientation
3;80;83;3;2.21248719999858;6;53;120;Houborg et al. (2023);Experiment 2;Orientation
3;84;112;28;2.71297760000016;7;-4;121;Houborg et al. (2023);Experiment 2;Orientation
3;99;103;4;1.49522389999947;7;-15;122;Houborg et al. (2023);Experiment 2;Orientation
3;18;42;24;1.17838170000141;7;81;123;Houborg et al. (2023);Experiment 2;Orientation
3;27;37;10;3.21312080000098;7;-9;124;Houborg et al. (2023);Experiment 2;Orientation
3;111;130;19;0.861252000000604;7;-84;125;Houborg et al. (2023);Experiment 2;Orientation
3;145;146;1;1.29498700000113;7;-34;126;Houborg et al. (2023);Experiment 2;Orientation
3;122;141;19;1.06162260000019;7;23;127;Houborg et al. (2023);Experiment 2;Orientation
3;172;158;-14;1.59523329999865;7;-50;128;Houborg et al. (2023);Experiment 2;Orientation
3;105;119;14;1.59514959999979;7;67;129;Houborg et al. (2023);Experiment 2;Orientation
3;146;137;-9;1.27821159999985;7;-41;130;Houborg et al. (2023);Experiment 2;Orientation
3;22;26;4;1.56189040000027;7;-56;131;Houborg et al. (2023);Experiment 2;Orientation
3;153;124;-29;5.24836739999955;7;49;132;Houborg et al. (2023);Experiment 2;Orientation
3;16;19;3;1.34520340000017;7;-43;133;Houborg et al. (2023);Experiment 2;Orientation
3;108;120;12;2.31263249999938;7;88;134;Houborg et al. (2023);Experiment 2;Orientation
3;147;137;-10;5.6154477;7;-39;135;Houborg et al. (2023);Experiment 2;Orientation
3;31;41;10;2.89642350000031;7;-64;136;Houborg et al. (2023);Experiment 2;Orientation
3;144;141;-3;3.54688329999954;7;67;137;Houborg et al. (2023);Experiment 2;Orientation
3;76;63;-13;1.36170669999956;7;68;138;Houborg et al. (2023);Experiment 2;Orientation
3;179;178;-1;5.18160439999883;7;77;139;Houborg et al. (2023);Experiment 2;Orientation
3;173;179;6;2.84636350000073;7;6;140;Houborg et al. (2023);Experiment 2;Orientation
3;111;135;24;1.5452920000007;8;62;141;Houborg et al. (2023);Experiment 2;Orientation
3;141;126;-15;1.54527119999875;8;-30;142;Houborg et al. (2023);Experiment 2;Orientation
3;109;116;7;2.29592260000027;8;32;143;Houborg et al. (2023);Experiment 2;Orientation
3;13;25;12;1.49521959999947;8;-84;144;Houborg et al. (2023);Experiment 2;Orientation
3;167;151;-16;1.06139099999928;8;26;145;Houborg et al. (2023);Experiment 2;Orientation
3;153;150;-3;2.96302329999889;8;14;146;Houborg et al. (2023);Experiment 2;Orientation
3;73;61;-12;1.54526839999926;8;80;147;Houborg et al. (2023);Experiment 2;Orientation
3;145;143;-2;1.67863789999865;8;-72;148;Houborg et al. (2023);Experiment 2;Orientation
3;129;133;4;1.21159380000063;8;16;149;Houborg et al. (2023);Experiment 2;Orientation
3;143;139;-4;3.44662959999914;8;-14;150;Houborg et al. (2023);Experiment 2;Orientation
3;60;56;-4;1.46207010000035;8;83;151;Houborg et al. (2023);Experiment 2;Orientation
3;37;37;0;2.71296400000028;8;23;152;Houborg et al. (2023);Experiment 2;Orientation
3;35;36;1;2.82966020000094;8;2;153;Houborg et al. (2023);Experiment 2;Orientation
3;155;156;1;2.36263760000111;8;60;154;Houborg et al. (2023);Experiment 2;Orientation
3;120;128;8;1.84533009999905;8;35;155;Houborg et al. (2023);Experiment 2;Orientation
3;17;27;10;1.9790322000008;8;-77;156;Houborg et al. (2023);Experiment 2;Orientation
3;10;12;2;2.44598060000135;8;7;157;Houborg et al. (2023);Experiment 2;Orientation
3;31;30;-1;2.17897719999928;8;-21;158;Houborg et al. (2023);Experiment 2;Orientation
3;72;47;-25;3.43023950000133;8;-41;159;Houborg et al. (2023);Experiment 2;Orientation
3;132;127;-5;2.52935470000011;8;-60;160;Houborg et al. (2023);Experiment 2;Orientation
3;92;96;4;2.42941270000119;9;40;161;Houborg et al. (2023);Experiment 2;Orientation
3;64;59;-5;4.76463039999908;9;28;162;Houborg et al. (2023);Experiment 2;Orientation
3;64;54;-10;1.61202159999993;9;0;163;Houborg et al. (2023);Experiment 2;Orientation
3;55;40;-15;1.97890589999952;9;9;164;Houborg et al. (2023);Experiment 2;Orientation
3;114;130;16;1.31177919999936;9;-59;165;Houborg et al. (2023);Experiment 2;Orientation
3;52;56;4;1.64518469999894;9;62;166;Houborg et al. (2023);Experiment 2;Orientation
3;59;51;-8;1.89560469999924;9;-7;167;Houborg et al. (2023);Experiment 2;Orientation
3;13;19;6;3.68043709999984;9;46;168;Houborg et al. (2023);Experiment 2;Orientation
3;57;55;-2;1.34509330000037;9;-44;169;Houborg et al. (2023);Experiment 2;Orientation
3;118;125;7;15.0062734000003;9;-61;170;Houborg et al. (2023);Experiment 2;Orientation
3;21;29;8;2.0789732000012;9;-83;171;Houborg et al. (2023);Experiment 2;Orientation
3;22;21;-1;1.82888329999878;9;-1;172;Houborg et al. (2023);Experiment 2;Orientation
3;28;32;4;1.52870379999877;9;-6;173;Houborg et al. (2023);Experiment 2;Orientation
3;176;169;-7;2.44599579999885;9;32;174;Houborg et al. (2023);Experiment 2;Orientation
3;140;147;7;2.06229110000095;9;36;175;Houborg et al. (2023);Experiment 2;Orientation
3;170;163;-7;1.32846950000021;9;-30;176;Houborg et al. (2023);Experiment 2;Orientation
3;155;149;-6;2.84620339999856;9;15;177;Houborg et al. (2023);Experiment 2;Orientation
3;28;49;21;1.42840389999947;9;-53;178;Houborg et al. (2023);Experiment 2;Orientation
3;62;63;1;3.41357179999977;9;-34;179;Houborg et al. (2023);Experiment 2;Orientation
3;53;55;2;3.53018460000021;9;9;180;Houborg et al. (2023);Experiment 2;Orientation
3;167;160;-7;1.51195239999834;10;66;181;Houborg et al. (2023);Experiment 2;Orientation
3;43;48;5;2.34601180000027;10;-56;182;Houborg et al. (2023);Experiment 2;Orientation
3;131;137;6;1.56206919999931;10;-88;183;Houborg et al. (2023);Experiment 2;Orientation
3;89;64;-25;1.94563910000034;10;42;184;Houborg et al. (2023);Experiment 2;Orientation
3;123;125;2;2.02896829999918;10;-34;185;Houborg et al. (2023);Experiment 2;Orientation
3;116;108;-8;4.33078899999964;10;7;186;Houborg et al. (2023);Experiment 2;Orientation
3;150;141;-9;1.39511809999931;10;-34;187;Houborg et al. (2023);Experiment 2;Orientation
3;9;34;25;2.81287180000072;10;-39;188;Houborg et al. (2023);Experiment 2;Orientation
3;88;148;60;4.8485927999991;10;-79;189;Houborg et al. (2023);Experiment 2;Orientation
3;162;156;-6;0.861294800000906;10;-74;190;Houborg et al. (2023);Experiment 2;Orientation
3;82;58;-24;2.16261370000029;10;80;191;Houborg et al. (2023);Experiment 2;Orientation
3;58;51;-7;1.91219660000024;10;24;192;Houborg et al. (2023);Experiment 2;Orientation
3;62;59;-3;1.67877480000061;10;-4;193;Houborg et al. (2023);Experiment 2;Orientation
3;152;143;-9;1.27826730000015;10;-90;194;Houborg et al. (2023);Experiment 2;Orientation
3;126;122;-4;2.61281500000041;10;26;195;Houborg et al. (2023);Experiment 2;Orientation
3;155;144;-11;1.51196359999994;10;-29;196;Houborg et al. (2023);Experiment 2;Orientation
3;147;20;53;8.90120189999834;10;8;197;Houborg et al. (2023);Experiment 2;Orientation
3;81;63;-18;1.5287515;10;66;198;Houborg et al. (2023);Experiment 2;Orientation
3;3;18;15;1.47840460000043;10;78;199;Houborg et al. (2023);Experiment 2;Orientation
3;133;143;10;2.09576400000151;10;50;200;Houborg et al. (2023);Experiment 2;Orientation
5;56;42;-14;1.26105449999886;1;NaN;1;Houborg et al. (2023);Experiment 2;Orientation
5;117;133;16;0.661197700001139;1;-61;2;Houborg et al. (2023);Experiment 2;Orientation
5;174;179;5;1.495171999999;1;-57;3;Houborg et al. (2023);Experiment 2;Orientation
5;169;175;6;4.59784500000023;1;5;4;Houborg et al. (2023);Experiment 2;Orientation
5;81;69;-12;1.34473020000041;1;88;5;Houborg et al. (2023);Experiment 2;Orientation
5;97;103;6;1.54532130000007;1;-16;6;Houborg et al. (2023);Experiment 2;Orientation
5;116;104;-12;1.31182540000009;1;-19;7;Houborg et al. (2023);Experiment 2;Orientation
5;7;168;-19;2.12975829999959;1;-71;8;Houborg et al. (2023);Experiment 2;Orientation
5;22;106;84;1.27849310000056;1;-15;9;Houborg et al. (2023);Experiment 2;Orientation
5;13;11;-2;1.67857089999961;1;9;10;Houborg et al. (2023);Experiment 2;Orientation
5;2;1;-1;1.72871909999958;1;11;11;Houborg et al. (2023);Experiment 2;Orientation
5;11;11;0;1.26175929999954;1;-9;12;Houborg et al. (2023);Experiment 2;Orientation
5;107;102;-5;1.74536170000101;1;84;13;Houborg et al. (2023);Experiment 2;Orientation
5;83;86;3;1.56208999999944;1;24;14;Houborg et al. (2023);Experiment 2;Orientation
5;51;65;14;1.22838890000094;1;32;15;Houborg et al. (2023);Experiment 2;Orientation
5;150;145;-5;0.944809199998417;1;81;16;Houborg et al. (2023);Experiment 2;Orientation
5;67;73;6;1.61205729999892;1;83;17;Houborg et al. (2023);Experiment 2;Orientation
5;172;178;6;1.67852820000007;1;75;18;Houborg et al. (2023);Experiment 2;Orientation
5;141;142;1;2.01212789999954;1;31;19;Houborg et al. (2023);Experiment 2;Orientation
5;171;11;20;4.04734300000018;1;-30;20;Houborg et al. (2023);Experiment 2;Orientation
5;34;96;62;1.67868550000094;2;-43;21;Houborg et al. (2023);Experiment 2;Orientation
5;5;179;-6;0.911429600000702;2;29;22;Houborg et al. (2023);Experiment 2;Orientation
5;82;83;1;2.26245670000026;2;-77;23;Houborg et al. (2023);Experiment 2;Orientation
5;52;81;29;1.46185429999969;2;30;24;Houborg et al. (2023);Experiment 2;Orientation
5;170;178;8;6.69955970000046;2;62;25;Houborg et al. (2023);Experiment 2;Orientation
5;130;147;17;1.62864760000048;2;40;26;Houborg et al. (2023);Experiment 2;Orientation
5;5;0;-5;1.42856349999965;2;-55;27;Houborg et al. (2023);Experiment 2;Orientation
5;123;116;-7;1.42848810000032;2;62;28;Houborg et al. (2023);Experiment 2;Orientation
5;156;166;10;1.59541129999889;2;-33;29;Houborg et al. (2023);Experiment 2;Orientation
5;85;81;-4;1.8120629999994;2;71;30;Houborg et al. (2023);Experiment 2;Orientation
5;173;170;-3;0.894823099999485;2;-88;31;Houborg et al. (2023);Experiment 2;Orientation
5;27;34;7;1.06135450000147;2;-34;32;Houborg et al. (2023);Experiment 2;Orientation
5;28;174;-34;1.64540429999943;2;-1;33;Houborg et al. (2023);Experiment 2;Orientation
5;70;77;7;1.82881520000046;2;-42;34;Houborg et al. (2023);Experiment 2;Orientation
5;54;43;-11;1.96233319999919;2;16;35;Houborg et al. (2023);Experiment 2;Orientation
5;85;88;3;1.76233219999995;2;-31;36;Houborg et al. (2023);Experiment 2;Orientation
5;86;91;5;1.6786706999992;2;-1;37;Houborg et al. (2023);Experiment 2;Orientation
5;100;99;-1;1.36199329999909;2;-14;38;Houborg et al. (2023);Experiment 2;Orientation
5;83;79;-4;1.44521480000003;2;17;39;Houborg et al. (2023);Experiment 2;Orientation
5;35;52;17;1.34576190000007;2;48;40;Houborg et al. (2023);Experiment 2;Orientation
5;55;43;-12;3.06331300000056;3;-20;41;Houborg et al. (2023);Experiment 2;Orientation
5;76;74;-2;1.6121146000005;3;-21;42;Houborg et al. (2023);Experiment 2;Orientation
5;160;161;1;0.694415500000105;3;-84;43;Houborg et al. (2023);Experiment 2;Orientation
5;118;131;13;0.727656000000934;3;42;44;Houborg et al. (2023);Experiment 2;Orientation
5;146;162;16;1.44515659999888;3;-28;45;Houborg et al. (2023);Experiment 2;Orientation
5;23;15;-8;1.11174120000032;3;-57;46;Houborg et al. (2023);Experiment 2;Orientation
5;138;137;-1;1.11158410000098;3;65;47;Houborg et al. (2023);Experiment 2;Orientation
5;127;127;0;1.74575969999933;3;11;48;Houborg et al. (2023);Experiment 2;Orientation
5;167;81;-86;1.36182499999995;3;-40;49;Houborg et al. (2023);Experiment 2;Orientation
5;75;87;12;1.26173240000026;3;-88;50;Houborg et al. (2023);Experiment 2;Orientation
5;155;161;6;1.42860680000013;3;-80;51;Houborg et al. (2023);Experiment 2;Orientation
5;23;6;-17;1.8125799999998;3;-48;52;Houborg et al. (2023);Experiment 2;Orientation
5;123;131;8;1.21159049999915;3;80;53;Houborg et al. (2023);Experiment 2;Orientation
5;167;1;14;2.71300960000008;3;-44;54;Houborg et al. (2023);Experiment 2;Orientation
5;175;163;-12;1.24546779999946;3;-8;55;Houborg et al. (2023);Experiment 2;Orientation
5;134;121;-13;1.39506000000074;3;41;56;Houborg et al. (2023);Experiment 2;Orientation
5;136;133;-3;1.97917649999908;3;-2;57;Houborg et al. (2023);Experiment 2;Orientation
5;49;60;11;1.49525119999998;3;87;58;Houborg et al. (2023);Experiment 2;Orientation
5;47;51;4;1.21176980000018;3;2;59;Houborg et al. (2023);Experiment 2;Orientation
5;104;101;-3;2.12891120000131;3;-57;60;Houborg et al. (2023);Experiment 2;Orientation
5;146;137;-9;1.06134229999952;4;-42;61;Houborg et al. (2023);Experiment 2;Orientation
5;44;56;12;1.71209180000005;4;-78;62;Houborg et al. (2023);Experiment 2;Orientation
5;62;95;33;1.97904999999992;4;-18;63;Houborg et al. (2023);Experiment 2;Orientation
5;158;164;6;2.17888900000071;4;84;64;Houborg et al. (2023);Experiment 2;Orientation
5;75;99;24;1.12841870000011;4;83;65;Houborg et al. (2023);Experiment 2;Orientation
5;108;99;-9;2.27927630000158;4;-33;66;Houborg et al. (2023);Experiment 2;Orientation
5;110;110;0;1.3617376000002;4;-2;67;Houborg et al. (2023);Experiment 2;Orientation
5;141;115;-26;0.944757100000061;4;-31;68;Houborg et al. (2023);Experiment 2;Orientation
5;67;77;10;0.878193000000465;4;74;69;Houborg et al. (2023);Experiment 2;Orientation
5;104;104;0;1.02879399999983;4;-37;70;Houborg et al. (2023);Experiment 2;Orientation
5;139;120;-19;1.21151680000003;4;-35;71;Houborg et al. (2023);Experiment 2;Orientation
5;53;75;22;1.79555690000052;4;86;72;Houborg et al. (2023);Experiment 2;Orientation
5;41;30;-11;1.66196420000051;4;12;73;Houborg et al. (2023);Experiment 2;Orientation
5;107;138;31;0.911826100000326;4;-66;74;Houborg et al. (2023);Experiment 2;Orientation
5;56;66;10;1.21141510000052;4;51;75;Houborg et al. (2023);Experiment 2;Orientation
5;53;58;5;1.24500470000021;4;3;76;Houborg et al. (2023);Experiment 2;Orientation
5;34;28;-6;0.961462600000232;4;19;77;Houborg et al. (2023);Experiment 2;Orientation
5;38;33;-5;1.0614800000003;4;-4;78;Houborg et al. (2023);Experiment 2;Orientation
5;85;108;23;1.26160359999994;4;-47;79;Houborg et al. (2023);Experiment 2;Orientation
5;113;117;4;0.727890300000581;4;-28;80;Houborg et al. (2023);Experiment 2;Orientation
5;108;100;-8;0.877775299999485;5;5;81;Houborg et al. (2023);Experiment 2;Orientation
5;39;42;3;1.34508019999885;5;69;82;Houborg et al. (2023);Experiment 2;Orientation
5;40;72;32;0.944889100001092;5;-1;83;Houborg et al. (2023);Experiment 2;Orientation
5;110;100;-10;0.828030000000581;5;-70;84;Houborg et al. (2023);Experiment 2;Orientation
5;29;90;61;1.21168430000034;5;81;85;Houborg et al. (2023);Experiment 2;Orientation
5;5;106;-79;1.07832039999994;5;24;86;Houborg et al. (2023);Experiment 2;Orientation
5;72;79;7;0.91156140000021;5;-67;87;Houborg et al. (2023);Experiment 2;Orientation
5;45;80;35;1.34520469999916;5;27;88;Houborg et al. (2023);Experiment 2;Orientation
5;51;71;20;1.76212680000026;5;-6;89;Houborg et al. (2023);Experiment 2;Orientation
5;144;139;-5;1.59536949999892;5;87;90;Houborg et al. (2023);Experiment 2;Orientation
5;34;45;11;1.17832330000056;5;-70;91;Houborg et al. (2023);Experiment 2;Orientation
5;84;94;10;0.994769599999927;5;-50;92;Houborg et al. (2023);Experiment 2;Orientation
5;94;107;13;0.561156499999925;5;-10;93;Houborg et al. (2023);Experiment 2;Orientation
5;103;112;9;1.54530259999956;5;-9;94;Houborg et al. (2023);Experiment 2;Orientation
5;33;41;8;0.844713800001045;5;70;95;Houborg et al. (2023);Experiment 2;Orientation
5;24;30;6;0.978111500000523;5;9;96;Houborg et al. (2023);Experiment 2;Orientation
5;75;86;11;1.36192239999946;5;-51;97;Houborg et al. (2023);Experiment 2;Orientation
5;146;77;-69;1.11158219999925;5;-71;98;Houborg et al. (2023);Experiment 2;Orientation
5;53;71;18;1.29498760000024;5;-87;99;Houborg et al. (2023);Experiment 2;Orientation
5;58;61;3;1.17832730000009;5;-5;100;Houborg et al. (2023);Experiment 2;Orientation
5;133;120;-13;1.12839489999897;6;-75;101;Houborg et al. (2023);Experiment 2;Orientation
5;103;114;11;1.19507499999963;6;30;102;Houborg et al. (2023);Experiment 2;Orientation
5;50;60;10;1.17817039999863;6;53;103;Houborg et al. (2023);Experiment 2;Orientation
5;136;135;-1;0.944742499999847;6;-86;104;Houborg et al. (2023);Experiment 2;Orientation
5;87;82;-5;1.21178879999934;6;49;105;Houborg et al. (2023);Experiment 2;Orientation
5;106;118;12;0.944750399999975;6;-19;106;Houborg et al. (2023);Experiment 2;Orientation
5;119;115;-4;1.09494089999862;6;-13;107;Houborg et al. (2023);Experiment 2;Orientation
5;143;159;16;1.14495920000081;6;-24;108;Houborg et al. (2023);Experiment 2;Orientation
5;110;110;0;1.24515740000061;6;33;109;Houborg et al. (2023);Experiment 2;Orientation
5;56;59;3;1.06150490000073;6;54;110;Houborg et al. (2023);Experiment 2;Orientation
5;125;136;11;1.24509340000077;6;-69;111;Houborg et al. (2023);Experiment 2;Orientation
5;49;77;28;0.828034699999989;6;76;112;Houborg et al. (2023);Experiment 2;Orientation
5;20;21;1;1.27829410000049;6;29;113;Houborg et al. (2023);Experiment 2;Orientation
5;146;129;-17;1.06152830000065;6;54;114;Houborg et al. (2023);Experiment 2;Orientation
5;162;168;6;3.37995969999974;6;-16;115;Houborg et al. (2023);Experiment 2;Orientation
5;103;101;-2;0.928001799999038;6;59;116;Houborg et al. (2023);Experiment 2;Orientation
5;144;138;-6;1.34517810000034;6;-41;117;Houborg et al. (2023);Experiment 2;Orientation
5;39;108;69;0.878208099999028;6;-75;118;Houborg et al. (2023);Experiment 2;Orientation
5;84;81;-3;1.24493489999986;6;-45;119;Houborg et al. (2023);Experiment 2;Orientation
5;113;109;-4;0.611190199999328;6;-29;120;Houborg et al. (2023);Experiment 2;Orientation
5;119;118;-1;0.878147100000206;7;-6;121;Houborg et al. (2023);Experiment 2;Orientation
5;18;17;-1;1.17840140000044;7;-79;122;Houborg et al. (2023);Experiment 2;Orientation
5;45;38;-7;0.87793690000035;7;-27;123;Houborg et al. (2023);Experiment 2;Orientation
5;178;10;12;0.611229500000263;7;47;124;Houborg et al. (2023);Experiment 2;Orientation
5;22;37;15;0.911362700000609;7;-24;125;Houborg et al. (2023);Experiment 2;Orientation
5;106;84;-22;2.54618630000004;7;-84;126;Houborg et al. (2023);Experiment 2;Orientation
5;125;115;-10;5.29840280000099;7;-19;127;Houborg et al. (2023);Experiment 2;Orientation
5;53;51;-2;2.36271259999921;7;72;128;Houborg et al. (2023);Experiment 2;Orientation
5;54;49;-5;1.06152740000107;7;-1;129;Houborg et al. (2023);Experiment 2;Orientation
5;166;176;10;0.577831200000219;7;68;130;Houborg et al. (2023);Experiment 2;Orientation
5;49;78;29;0.961632900000041;7;-63;131;Houborg et al. (2023);Experiment 2;Orientation
5;27;41;14;1.39516949999961;7;22;132;Houborg et al. (2023);Experiment 2;Orientation
5;156;172;16;1.04461869999977;7;51;133;Houborg et al. (2023);Experiment 2;Orientation
5;61;70;9;0.527789000001576;7;-85;134;Houborg et al. (2023);Experiment 2;Orientation
5;102;101;-1;0.627900199999203;7;-41;135;Houborg et al. (2023);Experiment 2;Orientation
5;127;117;-10;1.4786036000005;7;-25;136;Houborg et al. (2023);Experiment 2;Orientation
5;73;68;-5;1.04486079999879;7;54;137;Houborg et al. (2023);Experiment 2;Orientation
5;39;56;17;0.828028300000369;7;34;138;Houborg et al. (2023);Experiment 2;Orientation
5;163;164;1;1.44516570000087;7;56;139;Houborg et al. (2023);Experiment 2;Orientation
5;25;36;11;0.894737900000109;7;-42;140;Houborg et al. (2023);Experiment 2;Orientation
5;65;77;12;0.827941199999259;8;-40;141;Houborg et al. (2023);Experiment 2;Orientation
5;51;68;17;1.46190369999931;8;14;142;Houborg et al. (2023);Experiment 2;Orientation
5;147;160;13;0.79474669999945;8;84;143;Houborg et al. (2023);Experiment 2;Orientation
5;43;55;12;0.994881799999348;8;-76;144;Houborg et al. (2023);Experiment 2;Orientation
5;98;92;-6;1.14501279999968;8;-55;145;Houborg et al. (2023);Experiment 2;Orientation
5;127;120;-7;0.827865299999758;8;-29;146;Houborg et al. (2023);Experiment 2;Orientation
5;148;142;-6;1.17839140000069;8;-21;147;Houborg et al. (2023);Experiment 2;Orientation
5;81;103;22;1.01174030000038;8;67;148;Houborg et al. (2023);Experiment 2;Orientation
5;143;165;22;1.2784214000003;8;-62;149;Houborg et al. (2023);Experiment 2;Orientation
5;150;170;20;1.66192279999996;8;-7;150;Houborg et al. (2023);Experiment 2;Orientation
5;171;25;34;0.878183100001479;8;-21;151;Houborg et al. (2023);Experiment 2;Orientation
5;43;43;0;1.04501509999864;8;-52;152;Houborg et al. (2023);Experiment 2;Orientation
5;80;81;1;1.11151190000055;8;-37;153;Houborg et al. (2023);Experiment 2;Orientation
5;49;51;2;1.0114248000009;8;31;154;Houborg et al. (2023);Experiment 2;Orientation
5;97;105;8;1.16110219999973;8;-48;155;Houborg et al. (2023);Experiment 2;Orientation
5;67;71;4;1.02812489999997;8;30;156;Houborg et al. (2023);Experiment 2;Orientation
5;39;42;3;0.861227600000348;8;28;157;Houborg et al. (2023);Experiment 2;Orientation
5;145;163;18;0.761552600000869;8;74;158;Houborg et al. (2023);Experiment 2;Orientation
5;143;160;17;0.711273700000675;8;2;159;Houborg et al. (2023);Experiment 2;Orientation
5;22;27;5;1.1615055000002;8;-59;160;Houborg et al. (2023);Experiment 2;Orientation
5;142;169;27;2.09591019999971;9;60;161;Houborg et al. (2023);Experiment 2;Orientation
5;10;21;11;0.828064399998766;9;-48;162;Houborg et al. (2023);Experiment 2;Orientation
5;116;121;5;0.878003800000442;9;74;163;Houborg et al. (2023);Experiment 2;Orientation
5;147;129;-18;0.96160559999953;9;-31;164;Houborg et al. (2023);Experiment 2;Orientation
5;154;157;3;1.49529930000062;9;-7;165;Houborg et al. (2023);Experiment 2;Orientation
5;1;177;-4;0.761282999999821;9;-27;166;Houborg et al. (2023);Experiment 2;Orientation
5;177;170;-7;1.07827499999985;9;4;167;Houborg et al. (2023);Experiment 2;Orientation
5;66;136;70;0.577820299999075;9;-69;168;Houborg et al. (2023);Experiment 2;Orientation
5;50;61;11;1.06172239999978;9;16;169;Houborg et al. (2023);Experiment 2;Orientation
5;98;113;15;0.978168300000107;9;-48;170;Houborg et al. (2023);Experiment 2;Orientation
5;148;107;-41;1.41198579999946;9;-50;171;Houborg et al. (2023);Experiment 2;Orientation
5;108;111;3;0.661135000000286;9;40;172;Houborg et al. (2023);Experiment 2;Orientation
5;44;58;14;0.944703600000139;9;64;173;Houborg et al. (2023);Experiment 2;Orientation
5;174;21;27;0.978179800000362;9;50;174;Houborg et al. (2023);Experiment 2;Orientation
5;143;156;13;0.694739700000355;9;31;175;Houborg et al. (2023);Experiment 2;Orientation
5;106;110;4;0.92795759999899;9;37;176;Houborg et al. (2023);Experiment 2;Orientation
5;14;33;19;1.17833000000064;9;-88;177;Houborg et al. (2023);Experiment 2;Orientation
5;115;91;-24;1.07832029999918;9;79;178;Houborg et al. (2023);Experiment 2;Orientation
5;131;138;7;1.42849339999884;9;-16;179;Houborg et al. (2023);Experiment 2;Orientation
5;10;5;-5;1.06183860000056;9;-59;180;Houborg et al. (2023);Experiment 2;Orientation
5;109;116;7;1.39511090000087;10;81;181;Houborg et al. (2023);Experiment 2;Orientation
5;74;76;2;0.878108999999313;10;35;182;Houborg et al. (2023);Experiment 2;Orientation
5;30;27;-3;1.24498979999953;10;44;183;Houborg et al. (2023);Experiment 2;Orientation
5;36;32;-4;0.811341500000708;10;-6;184;Houborg et al. (2023);Experiment 2;Orientation
5;34;27;-7;0.961457399998835;10;2;185;Houborg et al. (2023);Experiment 2;Orientation
5;174;20;26;0.827957800000149;10;40;186;Houborg et al. (2023);Experiment 2;Orientation
5;117;110;-7;1.31171780000113;10;57;187;Houborg et al. (2023);Experiment 2;Orientation
5;38;52;14;1.04484890000094;10;79;188;Houborg et al. (2023);Experiment 2;Orientation
5;2;2;0;1.54520520000005;10;36;189;Houborg et al. (2023);Experiment 2;Orientation
5;12;179;-13;1.17815739999969;10;-10;190;Houborg et al. (2023);Experiment 2;Orientation
5;99;105;6;0.99484929999926;10;-87;191;Houborg et al. (2023);Experiment 2;Orientation
5;86;66;-20;1.16170070000044;10;13;192;Houborg et al. (2023);Experiment 2;Orientation
5;59;96;37;0.994882200000575;10;27;193;Houborg et al. (2023);Experiment 2;Orientation
5;76;76;0;0.878040900000997;10;-17;194;Houborg et al. (2023);Experiment 2;Orientation
5;13;19;6;1.17829089999941;10;63;195;Houborg et al. (2023);Experiment 2;Orientation
5;145;165;20;0.844606300001033;10;48;196;Houborg et al. (2023);Experiment 2;Orientation
5;32;67;35;1.0614157;10;-67;197;Houborg et al. (2023);Experiment 2;Orientation
5;54;78;24;1.47847770000044;10;-22;198;Houborg et al. (2023);Experiment 2;Orientation
5;32;56;24;0.894893599999705;10;22;199;Houborg et al. (2023);Experiment 2;Orientation
5;28;28;0;0.994975399999021;10;4;200;Houborg et al. (2023);Experiment 2;Orientation
6;90;93;3;1.82881950000592;1;NaN;1;Houborg et al. (2023);Experiment 2;Orientation
6;18;32;14;1.02819359999557;1;72;2;Houborg et al. (2023);Experiment 2;Orientation
6;116;136;20;2.8298974000063;1;82;3;Houborg et al. (2023);Experiment 2;Orientation
6;130;146;16;1.49520140000095;1;-14;4;Houborg et al. (2023);Experiment 2;Orientation
6;91;95;4;1.32829610000772;1;39;5;Houborg et al. (2023);Experiment 2;Orientation
6;100;103;3;0.894873799989;1;-9;6;Houborg et al. (2023);Experiment 2;Orientation
6;178;0;2;1.66211610000755;1;-78;7;Houborg et al. (2023);Experiment 2;Orientation
6;41;174;-47;1.49514539999655;1;-43;8;Houborg et al. (2023);Experiment 2;Orientation
6;11;6;-5;0.994877399993129;1;30;9;Houborg et al. (2023);Experiment 2;Orientation
6;76;8;-68;1.37840439999127;1;-65;10;Houborg et al. (2023);Experiment 2;Orientation
6;57;47;-10;1.04486009999528;1;19;11;Houborg et al. (2023);Experiment 2;Orientation
6;120;105;-15;1.44514690000506;1;-63;12;Houborg et al. (2023);Experiment 2;Orientation
6;90;90;0;1.42838359999587;1;30;13;Houborg et al. (2023);Experiment 2;Orientation
6;80;97;17;1.49519560000044;1;10;14;Houborg et al. (2023);Experiment 2;Orientation
6;175;8;13;1.59530880000966;1;85;15;Houborg et al. (2023);Experiment 2;Orientation
6;90;168;78;1.72862159999204;1;85;16;Houborg et al. (2023);Experiment 2;Orientation
6;95;109;14;1.5286277999985;1;-5;17;Houborg et al. (2023);Experiment 2;Orientation
6;39;48;9;1.21167829999467;1;56;18;Houborg et al. (2023);Experiment 2;Orientation
6;77;61;-16;1.1614397999947;1;-38;19;Houborg et al. (2023);Experiment 2;Orientation
6;138;30;72;2.06222799999523;1;-61;20;Houborg et al. (2023);Experiment 2;Orientation
6;129;121;-8;1.27840490000381;2;9;21;Houborg et al. (2023);Experiment 2;Orientation
6;127;127;0;1.04492650000611;2;2;22;Houborg et al. (2023);Experiment 2;Orientation
6;73;53;-20;0.794720600009896;2;54;23;Houborg et al. (2023);Experiment 2;Orientation
6;131;134;3;1.01149249999435;2;-58;24;Houborg et al. (2023);Experiment 2;Orientation
6;30;25;-5;1.31177859999298;2;-79;25;Houborg et al. (2023);Experiment 2;Orientation
6;143;145;2;1.16169880000234;2;67;26;Houborg et al. (2023);Experiment 2;Orientation
6;56;117;61;1.39494630000263;2;87;27;Houborg et al. (2023);Experiment 2;Orientation
6;52;48;-4;1.11163690000831;2;4;28;Houborg et al. (2023);Experiment 2;Orientation
6;144;136;-8;1.36194079999404;2;88;29;Houborg et al. (2023);Experiment 2;Orientation
6;31;7;-24;1.66207739998936;2;-67;30;Houborg et al. (2023);Experiment 2;Orientation
6;179;178;-1;1.07825580000645;2;32;31;Houborg et al. (2023);Experiment 2;Orientation
6;58;29;-29;0.861446899987641;2;-59;32;Houborg et al. (2023);Experiment 2;Orientation
6;72;46;-26;1.6453496000031;2;-14;33;Houborg et al. (2023);Experiment 2;Orientation
6;126;109;-17;1.52852540000458;2;-54;34;Houborg et al. (2023);Experiment 2;Orientation
6;33;155;-58;2.82965470000636;2;-87;35;Houborg et al. (2023);Experiment 2;Orientation
6;113;96;-17;2.09580260000075;2;-80;36;Houborg et al. (2023);Experiment 2;Orientation
6;96;101;5;0.928109899992705;2;17;37;Houborg et al. (2023);Experiment 2;Orientation
6;34;28;-6;1.16159020000487;2;62;38;Houborg et al. (2023);Experiment 2;Orientation
6;48;59;11;2.67960439999297;2;-14;39;Houborg et al. (2023);Experiment 2;Orientation
6;82;90;8;1.16163750000123;2;-34;40;Houborg et al. (2023);Experiment 2;Orientation
6;13;145;-48;1.01151959999697;3;69;41;Houborg et al. (2023);Experiment 2;Orientation
6;77;62;-15;1.46186070000113;3;-64;42;Houborg et al. (2023);Experiment 2;Orientation
6;82;90;8;1.21163839999645;3;-5;43;Houborg et al. (2023);Experiment 2;Orientation
6;95;87;-8;2.47939290000068;3;-13;44;Houborg et al. (2023);Experiment 2;Orientation
6;57;38;-19;1.02823090000311;3;38;45;Houborg et al. (2023);Experiment 2;Orientation
6;93;64;-29;1.74549739999929;3;-36;46;Houborg et al. (2023);Experiment 2;Orientation
6;108;126;18;0.994729800004279;3;-15;47;Houborg et al. (2023);Experiment 2;Orientation
6;17;1;-16;1.32843859998684;3;-89;48;Houborg et al. (2023);Experiment 2;Orientation
6;134;143;9;1.51190099999076;3;63;49;Houborg et al. (2023);Experiment 2;Orientation
6;11;17;6;1.37866740000027;3;-57;50;Houborg et al. (2023);Experiment 2;Orientation
6;103;102;-1;1.21161830000347;3;88;51;Houborg et al. (2023);Experiment 2;Orientation
6;159;149;-10;1.47867559999577;3;-56;52;Houborg et al. (2023);Experiment 2;Orientation
6;128;110;-18;1.39514860000054;3;31;53;Houborg et al. (2023);Experiment 2;Orientation
6;118;108;-10;2.29589179999311;3;10;54;Houborg et al. (2023);Experiment 2;Orientation
6;133;146;13;1.0783572000073;3;-15;55;Houborg et al. (2023);Experiment 2;Orientation
6;99;108;9;1.06158379999397;3;34;56;Houborg et al. (2023);Experiment 2;Orientation
6;173;1;8;1.09484370000428;3;-74;57;Houborg et al. (2023);Experiment 2;Orientation
6;90;94;4;1.2450722999929;3;83;58;Houborg et al. (2023);Experiment 2;Orientation
6;158;155;-3;2.09577899999567;3;-68;59;Houborg et al. (2023);Experiment 2;Orientation
6;135;162;27;1.16169100000116;3;23;60;Houborg et al. (2023);Experiment 2;Orientation
6;117;122;5;1.14485889999196;4;18;61;Houborg et al. (2023);Experiment 2;Orientation
6;169;163;-6;1.31185880000703;4;-52;62;Houborg et al. (2023);Experiment 2;Orientation
6;97;108;11;1.02817689999938;4;72;63;Houborg et al. (2023);Experiment 2;Orientation
6;79;107;28;0.978028999990784;4;18;64;Houborg et al. (2023);Experiment 2;Orientation
6;98;114;16;1.06145700000343;4;-19;65;Houborg et al. (2023);Experiment 2;Orientation
6;114;104;-10;1.81216790000326;4;-16;66;Houborg et al. (2023);Experiment 2;Orientation
6;156;108;-48;1.1616597000102;4;-42;67;Houborg et al. (2023);Experiment 2;Orientation
6;59;0;-59;1.01157030000468;4;-83;68;Houborg et al. (2023);Experiment 2;Orientation
6;115;126;11;0.994866399996681;4;-56;69;Houborg et al. (2023);Experiment 2;Orientation
6;163;62;79;4.34760459999961;4;-48;70;Houborg et al. (2023);Experiment 2;Orientation
6;174;132;-42;1.5451841000031;4;-11;71;Houborg et al. (2023);Experiment 2;Orientation
6;45;55;10;1.61206839999068;4;-51;72;Houborg et al. (2023);Experiment 2;Orientation
6;124;122;-2;1.4618838000024;4;-79;73;Houborg et al. (2023);Experiment 2;Orientation
6;97;92;-5;1.21167180000339;4;27;74;Houborg et al. (2023);Experiment 2;Orientation
6;18;31;13;1.29507390000799;4;79;75;Houborg et al. (2023);Experiment 2;Orientation
6;98;100;2;1.19506329999422;4;-80;76;Houborg et al. (2023);Experiment 2;Orientation
6;15;42;27;1.44538130000001;4;83;77;Houborg et al. (2023);Experiment 2;Orientation
6;83;64;-19;1.42850700000417;4;-68;78;Houborg et al. (2023);Experiment 2;Orientation
6;139;125;-14;1.16172370000277;4;-56;79;Houborg et al. (2023);Experiment 2;Orientation
6;121;116;-5;1.66215950000333;4;18;80;Houborg et al. (2023);Experiment 2;Orientation
6;104;113;9;1.19489980000071;5;17;81;Houborg et al. (2023);Experiment 2;Orientation
6;78;62;-16;1.04472559998976;5;26;82;Houborg et al. (2023);Experiment 2;Orientation
6;17;51;34;1.24511260000872;5;61;83;Houborg et al. (2023);Experiment 2;Orientation
6;111;119;8;1.1948005999875;5;86;84;Houborg et al. (2023);Experiment 2;Orientation
6;158;152;-6;1.39504339999985;5;-47;85;Houborg et al. (2023);Experiment 2;Orientation
6;141;119;-22;1.4290910000127;5;17;86;Houborg et al. (2023);Experiment 2;Orientation
6;40;38;-2;1.2450763000088;5;-79;87;Houborg et al. (2023);Experiment 2;Orientation
6;110;47;-63;1.39512859999377;5;-70;88;Houborg et al. (2023);Experiment 2;Orientation
6;33;25;-8;1.29509479999251;5;77;89;Houborg et al. (2023);Experiment 2;Orientation
6;103;100;-3;1.07820469999569;5;-70;90;Houborg et al. (2023);Experiment 2;Orientation
6;12;21;9;1.32847020000918;5;-89;91;Houborg et al. (2023);Experiment 2;Orientation
6;138;135;-3;0.911283800000092;5;54;92;Houborg et al. (2023);Experiment 2;Orientation
6;51;30;-21;1.02821489999769;5;87;93;Houborg et al. (2023);Experiment 2;Orientation
6;168;164;-4;1.31181879999349;5;63;94;Houborg et al. (2023);Experiment 2;Orientation
6;147;156;9;0.811176200004411;5;21;95;Houborg et al. (2023);Experiment 2;Orientation
6;180;173;-7;0.844769499992253;5;-33;96;Houborg et al. (2023);Experiment 2;Orientation
6;136;6;50;1.24499409999407;5;44;97;Houborg et al. (2023);Experiment 2;Orientation
6;134;121;-13;1.77882219999447;5;2;98;Houborg et al. (2023);Experiment 2;Orientation
6;21;36;15;2.22758559999056;5;-67;99;Houborg et al. (2023);Experiment 2;Orientation
6;140;144;4;1.34518249999383;5;61;100;Houborg et al. (2023);Experiment 2;Orientation
6;163;159;-4;1.22832470000139;6;-23;101;Houborg et al. (2023);Experiment 2;Orientation
6;99;93;-6;1.06147719999717;6;64;102;Houborg et al. (2023);Experiment 2;Orientation
6;73;65;-8;1.54515530000208;6;26;103;Houborg et al. (2023);Experiment 2;Orientation
6;169;40;51;1.61208370000531;6;84;104;Houborg et al. (2023);Experiment 2;Orientation
6;151;126;-25;0.928139399999054;6;18;105;Houborg et al. (2023);Experiment 2;Orientation
6;152;130;-22;1.3283694999991;6;-1;106;Houborg et al. (2023);Experiment 2;Orientation
6;24;54;30;1.29495159999351;6;-52;107;Houborg et al. (2023);Experiment 2;Orientation
6;102;96;-6;1.17835100000957;6;-78;108;Houborg et al. (2023);Experiment 2;Orientation
6;39;16;-23;1.01150710000366;6;63;109;Houborg et al. (2023);Experiment 2;Orientation
6;32;30;-2;0.927928499993868;6;7;110;Houborg et al. (2023);Experiment 2;Orientation
6;8;156;-32;2.44602459999442;6;24;111;Houborg et al. (2023);Experiment 2;Orientation
6;59;111;52;1.7289618000068;6;-51;112;Houborg et al. (2023);Experiment 2;Orientation
6;117;103;-14;1.04484400000365;6;-58;113;Houborg et al. (2023);Experiment 2;Orientation
6;136;131;-5;0.928039199992782;6;-19;114;Houborg et al. (2023);Experiment 2;Orientation
6;130;115;-15;1.72887320000154;6;6;115;Houborg et al. (2023);Experiment 2;Orientation
6;173;38;45;1.57875070000591;6;-43;116;Houborg et al. (2023);Experiment 2;Orientation
6;124;116;-8;1.22843800000555;6;49;117;Houborg et al. (2023);Experiment 2;Orientation
6;83;92;9;1.17832209999324;6;41;118;Houborg et al. (2023);Experiment 2;Orientation
6;126;130;4;1.09484050000901;6;-43;119;Houborg et al. (2023);Experiment 2;Orientation
6;93;85;-8;1.06143400000292;6;33;120;Houborg et al. (2023);Experiment 2;Orientation
6;77;75;-2;1.0782779000001;7;16;121;Houborg et al. (2023);Experiment 2;Orientation
6;28;13;-15;1.07816360000288;7;49;122;Houborg et al. (2023);Experiment 2;Orientation
6;80;76;-4;1.14500259999477;7;-52;123;Houborg et al. (2023);Experiment 2;Orientation
6;119;128;9;1.27841959999932;7;-39;124;Houborg et al. (2023);Experiment 2;Orientation
6;127;123;-4;1.6120513999922;7;-8;125;Houborg et al. (2023);Experiment 2;Orientation
6;118;134;16;1.29489869999816;7;9;126;Houborg et al. (2023);Experiment 2;Orientation
6;81;89;8;1.2112846999953;7;37;127;Houborg et al. (2023);Experiment 2;Orientation
6;12;175;-17;1.59527410000737;7;69;128;Houborg et al. (2023);Experiment 2;Orientation
6;45;30;-15;1.21173529999214;7;-33;129;Houborg et al. (2023);Experiment 2;Orientation
6;11;130;-61;1.19510909999372;7;34;130;Houborg et al. (2023);Experiment 2;Orientation
6;176;171;-5;1.62849030000507;7;15;131;Houborg et al. (2023);Experiment 2;Orientation
6;92;89;-3;1.11165080001228;7;84;132;Houborg et al. (2023);Experiment 2;Orientation
6;140;82;-58;1.36249439998937;7;-48;133;Houborg et al. (2023);Experiment 2;Orientation
6;143;118;-25;1.21168929999112;7;-3;134;Houborg et al. (2023);Experiment 2;Orientation
6;95;116;21;1.1283015999943;7;48;135;Houborg et al. (2023);Experiment 2;Orientation
6;106;107;1;1.31184330000542;7;-11;136;Houborg et al. (2023);Experiment 2;Orientation
6;20;26;6;0.978164600004675;7;86;137;Houborg et al. (2023);Experiment 2;Orientation
6;27;21;-6;1.14497889998893;7;-7;138;Houborg et al. (2023);Experiment 2;Orientation
6;90;92;2;1.06141320000461;7;-63;139;Houborg et al. (2023);Experiment 2;Orientation
6;51;51;0;0.944631199992727;7;39;140;Houborg et al. (2023);Experiment 2;Orientation
6;159;136;-23;0.827955100001418;8;72;141;Houborg et al. (2023);Experiment 2;Orientation
6;42;40;-2;0.844703700000537;8;-63;142;Houborg et al. (2023);Experiment 2;Orientation
6;176;175;-1;1.57933619999676;8;46;143;Houborg et al. (2023);Experiment 2;Orientation
6;165;129;-36;1.06166389999271;8;11;144;Houborg et al. (2023);Experiment 2;Orientation
6;76;69;-7;1.09487800000352;8;89;145;Houborg et al. (2023);Experiment 2;Orientation
6;6;3;-3;1.1617222000059;8;70;146;Houborg et al. (2023);Experiment 2;Orientation
6;15;22;7;1.24503669999831;8;-9;147;Houborg et al. (2023);Experiment 2;Orientation
6;89;88;-1;1.4117544000037;8;-74;148;Houborg et al. (2023);Experiment 2;Orientation
6;128;124;-4;0.744736499997089;8;-39;149;Houborg et al. (2023);Experiment 2;Orientation
6;15;76;61;1.39521420000528;8;-67;150;Houborg et al. (2023);Experiment 2;Orientation
6;70;89;19;1.04471560000093;8;-55;151;Houborg et al. (2023);Experiment 2;Orientation
6;46;9;-37;1.11156740000297;8;24;152;Houborg et al. (2023);Experiment 2;Orientation
6;133;145;12;1.11158189999696;8;-87;153;Houborg et al. (2023);Experiment 2;Orientation
6;17;1;-16;1.46180929998809;8;-64;154;Houborg et al. (2023);Experiment 2;Orientation
6;105;121;16;1.26172140000563;8;-88;155;Houborg et al. (2023);Experiment 2;Orientation
6;29;22;-7;1.44507980000344;8;76;156;Houborg et al. (2023);Experiment 2;Orientation
6;2;12;10;1.89560390000406;8;27;157;Houborg et al. (2023);Experiment 2;Orientation
6;53;17;-36;1.29498249999597;8;-51;158;Houborg et al. (2023);Experiment 2;Orientation
6;69;71;2;0.961387800009106;8;-16;159;Houborg et al. (2023);Experiment 2;Orientation
6;62;52;-10;1.22835009999108;8;7;160;Houborg et al. (2023);Experiment 2;Orientation
6;15;21;6;1.81226810000953;9;47;161;Houborg et al. (2023);Experiment 2;Orientation
6;17;23;6;1.061618000007;9;-2;162;Houborg et al. (2023);Experiment 2;Orientation
6;61;153;-88;1.29496849999123;9;-44;163;Houborg et al. (2023);Experiment 2;Orientation
6;119;74;-45;1.24488499999279;9;-58;164;Houborg et al. (2023);Experiment 2;Orientation
6;155;129;-26;1.22839390000445;9;-36;165;Houborg et al. (2023);Experiment 2;Orientation
6;28;10;-18;0.961361300011049;9;-53;166;Houborg et al. (2023);Experiment 2;Orientation
6;157;146;-11;0.978086200004327;9;51;167;Houborg et al. (2023);Experiment 2;Orientation
6;171;153;-18;1.71209519999684;9;-14;168;Houborg et al. (2023);Experiment 2;Orientation
6;90;87;-3;1.21170729999722;9;81;169;Houborg et al. (2023);Experiment 2;Orientation
6;9;171;-18;0.92819769999187;9;81;170;Houborg et al. (2023);Experiment 2;Orientation
6;159;149;-10;1.92878369998652;9;30;171;Houborg et al. (2023);Experiment 2;Orientation
6;155;137;-18;1.66207900000154;9;4;172;Houborg et al. (2023);Experiment 2;Orientation
6;52;80;28;1.47856279999542;9;-77;173;Houborg et al. (2023);Experiment 2;Orientation
6;176;175;-1;1.21168310000212;9;56;174;Houborg et al. (2023);Experiment 2;Orientation
6;131;136;5;1.14498250000179;9;45;175;Houborg et al. (2023);Experiment 2;Orientation
6;169;155;-14;0.861543999999412;9;-38;176;Houborg et al. (2023);Experiment 2;Orientation
6;153;163;10;1.1282624000014;9;16;177;Houborg et al. (2023);Experiment 2;Orientation
6;140;139;-1;1.47864050000499;9;13;178;Houborg et al. (2023);Experiment 2;Orientation
6;151;149;-2;0.711116400008905;9;-11;179;Houborg et al. (2023);Experiment 2;Orientation
6;162;177;15;1.01161770000181;9;-11;180;Houborg et al. (2023);Experiment 2;Orientation
6;173;172;-1;1.57880050000676;10;-11;181;Houborg et al. (2023);Experiment 2;Orientation
6;39;40;1;1.6787231000053;10;-46;182;Houborg et al. (2023);Experiment 2;Orientation
6;151;149;-2;0.844866899991757;10;68;183;Houborg et al. (2023);Experiment 2;Orientation
6;18;1;-17;0.928025800007163;10;-47;184;Houborg et al. (2023);Experiment 2;Orientation
6;58;23;-35;1.01153619999241;10;-40;185;Houborg et al. (2023);Experiment 2;Orientation
6;156;146;-10;0.92828219999501;10;82;186;Houborg et al. (2023);Experiment 2;Orientation
6;68;54;-14;1.16183519999322;10;88;187;Houborg et al. (2023);Experiment 2;Orientation
6;82;75;-7;1.52858850000484;10;-14;188;Houborg et al. (2023);Experiment 2;Orientation
6;130;115;-15;0.778182599999127;10;-48;189;Houborg et al. (2023);Experiment 2;Orientation
6;150;117;-33;1.47844819999591;10;-20;190;Houborg et al. (2023);Experiment 2;Orientation
6;52;127;75;1.57874940001057;10;-82;191;Houborg et al. (2023);Experiment 2;Orientation
6;178;166;-12;1.19487520000257;10;54;192;Houborg et al. (2023);Experiment 2;Orientation
6;142;138;-4;0.727801600005478;10;36;193;Houborg et al. (2023);Experiment 2;Orientation
6;176;175;-1;1.01152719999664;10;-34;194;Houborg et al. (2023);Experiment 2;Orientation
6;116;130;14;0.878176400001394;10;60;195;Houborg et al. (2023);Experiment 2;Orientation
6;8;177;-11;0.811354300007224;10;-72;196;Houborg et al. (2023);Experiment 2;Orientation
6;26;40;14;1.46184309999808;10;-18;197;Houborg et al. (2023);Experiment 2;Orientation
6;62;78;16;0.827942899995833;10;-36;198;Houborg et al. (2023);Experiment 2;Orientation
6;135;131;-4;0.911340299993753;10;-73;199;Houborg et al. (2023);Experiment 2;Orientation
6;168;151;-17;1.12823319999734;10;-33;200;Houborg et al. (2023);Experiment 2;Orientation
7;87;86;-1;2.21164209999552;1;NaN;1;Houborg et al. (2023);Experiment 2;Orientation
7;119;135;16;1.54519810000784;1;-32;2;Houborg et al. (2023);Experiment 2;Orientation
7;13;20;7;2.01224399999774;1;-74;3;Houborg et al. (2023);Experiment 2;Orientation
7;124;134;10;1.47851879999507;1;69;4;Houborg et al. (2023);Experiment 2;Orientation
7;19;26;7;1.41139689998818;1;-75;5;Houborg et al. (2023);Experiment 2;Orientation
7;132;153;21;1.76217550000001;1;67;6;Houborg et al. (2023);Experiment 2;Orientation
7;157;16;39;1.67872050000005;1;-25;7;Houborg et al. (2023);Experiment 2;Orientation
7;70;53;-17;0.944736200006446;1;87;8;Houborg et al. (2023);Experiment 2;Orientation
7;28;28;0;3.2465419999935;1;42;9;Houborg et al. (2023);Experiment 2;Orientation
7;126;168;42;4.380971400009;1;82;10;Houborg et al. (2023);Experiment 2;Orientation
7;150;164;14;1.8122022000025;1;-24;11;Houborg et al. (2023);Experiment 2;Orientation
7;1;5;4;1.47849979999592;1;-31;12;Houborg et al. (2023);Experiment 2;Orientation
7;50;18;-32;1.49529669999902;1;-49;13;Houborg et al. (2023);Experiment 2;Orientation
7;19;16;-3;2.02896310000506;1;31;14;Houborg et al. (2023);Experiment 2;Orientation
7;107;120;13;1.17848229999072;1;-88;15;Houborg et al. (2023);Experiment 2;Orientation
7;153;165;12;1.19484979999834;1;-46;16;Houborg et al. (2023);Experiment 2;Orientation
7;95;155;60;2.14576650000527;1;58;17;Houborg et al. (2023);Experiment 2;Orientation
7;148;160;12;1.96227400000498;1;-53;18;Houborg et al. (2023);Experiment 2;Orientation
7;56;63;7;2.46253879999858;1;-88;19;Houborg et al. (2023);Experiment 2;Orientation
7;6;20;14;1.34514020000643;1;50;20;Houborg et al. (2023);Experiment 2;Orientation
7;120;120;0;1.77887989999726;2;66;21;Houborg et al. (2023);Experiment 2;Orientation
7;90;92;2;1.12808719999157;2;30;22;Houborg et al. (2023);Experiment 2;Orientation
7;160;153;-7;1.52860900000087;2;-70;23;Houborg et al. (2023);Experiment 2;Orientation
7;142;157;15;1.37855069999932;2;18;24;Houborg et al. (2023);Experiment 2;Orientation
7;13;17;4;1.07813059999899;2;-51;25;Houborg et al. (2023);Experiment 2;Orientation
7;61;12;-49;1.92900660001033;2;-48;26;Houborg et al. (2023);Experiment 2;Orientation
7;99;103;4;1.46174109999265;2;-38;27;Houborg et al. (2023);Experiment 2;Orientation
7;79;72;-7;1.32834559999174;2;20;28;Houborg et al. (2023);Experiment 2;Orientation
7;139;137;-2;1.27838239999255;2;-60;29;Houborg et al. (2023);Experiment 2;Orientation
7;86;119;33;1.36197549999633;2;53;30;Houborg et al. (2023);Experiment 2;Orientation
7;106;107;1;1.51182539999718;2;-20;31;Houborg et al. (2023);Experiment 2;Orientation
7;133;142;9;3.36358110001311;2;-27;32;Houborg et al. (2023);Experiment 2;Orientation
7;119;133;14;1.56196049999562;2;14;33;Houborg et al. (2023);Experiment 2;Orientation
7;112;144;32;2.34589399999822;2;7;34;Houborg et al. (2023);Experiment 2;Orientation
7;96;46;-50;1.77877000000444;2;16;35;Houborg et al. (2023);Experiment 2;Orientation
7;134;148;14;1.07808060001116;2;-38;36;Houborg et al. (2023);Experiment 2;Orientation
7;138;136;-2;1.12827670000843;2;-4;37;Houborg et al. (2023);Experiment 2;Orientation
7;160;166;6;1.41183919999457;2;-22;38;Houborg et al. (2023);Experiment 2;Orientation
7;63;60;-3;3.51355670001067;2;-83;39;Houborg et al. (2023);Experiment 2;Orientation
7;94;133;39;1.3617804999958;2;-31;40;Houborg et al. (2023);Experiment 2;Orientation
7;105;134;29;4.4310289999994;3;-11;41;Houborg et al. (2023);Experiment 2;Orientation
7;134;136;2;1.19481410000299;3;-29;42;Houborg et al. (2023);Experiment 2;Orientation
7;49;43;-6;2.54613239999162;3;85;43;Houborg et al. (2023);Experiment 2;Orientation
7;92;152;60;1.34515300000203;3;-43;44;Houborg et al. (2023);Experiment 2;Orientation
7;138;124;-14;3.31337400000484;3;-46;45;Houborg et al. (2023);Experiment 2;Orientation
7;81;113;32;1.66203049999604;3;57;46;Houborg et al. (2023);Experiment 2;Orientation
7;107;134;27;1.97910700000648;3;-26;47;Houborg et al. (2023);Experiment 2;Orientation
7;129;135;6;1.39505960000679;3;-22;48;Houborg et al. (2023);Experiment 2;Orientation
7;62;38;-24;1.11162250000052;3;67;49;Houborg et al. (2023);Experiment 2;Orientation
7;78;74;-4;1.17842460000247;3;-16;50;Houborg et al. (2023);Experiment 2;Orientation
7;66;55;-11;1.31168050000269;3;12;51;Houborg et al. (2023);Experiment 2;Orientation
7;138;130;-8;1.29516590001003;3;-72;52;Houborg et al. (2023);Experiment 2;Orientation
7;14;17;3;1.17677999999432;3;-56;53;Houborg et al. (2023);Experiment 2;Orientation
7;86;81;-5;1.56205589999445;3;-72;54;Houborg et al. (2023);Experiment 2;Orientation
7;2;4;2;2.27922850000323;3;84;55;Houborg et al. (2023);Experiment 2;Orientation
7;97;98;1;1.36182589999225;3;85;56;Houborg et al. (2023);Experiment 2;Orientation
7;103;111;8;1.67889619999914;3;-6;57;Houborg et al. (2023);Experiment 2;Orientation
7;115;125;10;1.67870079999557;3;-12;58;Houborg et al. (2023);Experiment 2;Orientation
7;175;14;19;1.64524629998778;3;-60;59;Houborg et al. (2023);Experiment 2;Orientation
7;6;9;3;1.79519620000792;3;-11;60;Houborg et al. (2023);Experiment 2;Orientation
7;98;114;16;1.44500140000309;4;88;61;Houborg et al. (2023);Experiment 2;Orientation
7;118;120;2;1.47864190000109;4;-20;62;Houborg et al. (2023);Experiment 2;Orientation
7;175;174;-1;1.64539959999092;4;-57;63;Houborg et al. (2023);Experiment 2;Orientation
7;178;2;4;1.64539330000116;4;-3;64;Houborg et al. (2023);Experiment 2;Orientation
7;151;178;27;1.32857759999752;4;27;65;Houborg et al. (2023);Experiment 2;Orientation
7;45;32;-13;1.29501139999775;4;-74;66;Houborg et al. (2023);Experiment 2;Orientation
7;109;112;3;2.24550900000031;4;-64;67;Houborg et al. (2023);Experiment 2;Orientation
7;45;31;-14;2.91309859999456;4;64;68;Houborg et al. (2023);Experiment 2;Orientation
7;177;10;13;1.77875949999725;4;48;69;Houborg et al. (2023);Experiment 2;Orientation
7;10;17;7;0.994985099998303;4;-13;70;Houborg et al. (2023);Experiment 2;Orientation
7;77;108;31;1.36179819999961;4;-67;71;Houborg et al. (2023);Experiment 2;Orientation
7;157;141;-16;2.07911600000807;4;-80;72;Houborg et al. (2023);Experiment 2;Orientation
7;178;9;11;1.24489709999762;4;-21;73;Houborg et al. (2023);Experiment 2;Orientation
7;10;9;-1;1.67872660000285;4;-12;74;Houborg et al. (2023);Experiment 2;Orientation
7;117;158;41;1.52854559999832;4;73;75;Houborg et al. (2023);Experiment 2;Orientation
7;145;155;10;0.894819200009806;4;-28;76;Houborg et al. (2023);Experiment 2;Orientation
7;55;56;1;2.17920429998776;4;90;77;Houborg et al. (2023);Experiment 2;Orientation
7;168;172;4;1.92898149999382;4;67;78;Houborg et al. (2023);Experiment 2;Orientation
7;92;113;21;1.97896920000494;4;76;79;Houborg et al. (2023);Experiment 2;Orientation
7;50;47;-3;2.32925660000183;4;42;80;Houborg et al. (2023);Experiment 2;Orientation
7;86;74;-12;2.09586719999788;5;-36;81;Houborg et al. (2023);Experiment 2;Orientation
7;83;82;-1;1.04486729999189;5;3;82;Houborg et al. (2023);Experiment 2;Orientation
7;95;111;16;2.31265659999917;5;-12;83;Houborg et al. (2023);Experiment 2;Orientation
7;153;155;2;1.59520970001176;5;-58;84;Houborg et al. (2023);Experiment 2;Orientation
7;98;49;-49;1.61183140000503;5;55;85;Houborg et al. (2023);Experiment 2;Orientation
7;160;160;0;1.31181270000525;5;-62;86;Houborg et al. (2023);Experiment 2;Orientation
7;129;131;2;0.828151199995773;5;31;87;Houborg et al. (2023);Experiment 2;Orientation
7;20;18;-2;2.84635849999904;5;-71;88;Houborg et al. (2023);Experiment 2;Orientation
7;25;13;-12;1.59535340000002;5;-5;89;Houborg et al. (2023);Experiment 2;Orientation
7;89;93;4;1.77884689999337;5;-64;90;Houborg et al. (2023);Experiment 2;Orientation
7;22;22;0;1.77875110000605;5;67;91;Houborg et al. (2023);Experiment 2;Orientation
7;61;36;-25;1.31182589998934;5;-39;92;Houborg et al. (2023);Experiment 2;Orientation
7;126;145;19;1.76191570000083;5;-65;93;Houborg et al. (2023);Experiment 2;Orientation
7;83;66;-17;1.62881049999851;5;43;94;Houborg et al. (2023);Experiment 2;Orientation
7;139;158;19;1.42856069999107;5;-56;95;Houborg et al. (2023);Experiment 2;Orientation
7;51;50;-1;1.69524380000075;5;88;96;Houborg et al. (2023);Experiment 2;Orientation
7;12;16;4;1.32845349999843;5;39;97;Houborg et al. (2023);Experiment 2;Orientation
7;114;40;-74;2.81296379999549;5;78;98;Houborg et al. (2023);Experiment 2;Orientation
7;97;110;13;1.24504290000186;5;17;99;Houborg et al. (2023);Experiment 2;Orientation
7;80;68;-12;0.97817839999334;5;17;100;Houborg et al. (2023);Experiment 2;Orientation
7;31;29;-2;0.927962000001571;6;49;101;Houborg et al. (2023);Experiment 2;Orientation
7;144;151;7;0.727882699997281;6;67;102;Houborg et al. (2023);Experiment 2;Orientation
7;68;63;-5;1.31172610000067;6;76;103;Houborg et al. (2023);Experiment 2;Orientation
7;28;33;5;0.861368800004129;6;40;104;Houborg et al. (2023);Experiment 2;Orientation
7;67;60;-7;1.51186709999456;6;-39;105;Houborg et al. (2023);Experiment 2;Orientation
7;150;142;-8;0.928152899999986;6;-83;106;Houborg et al. (2023);Experiment 2;Orientation
7;157;171;14;1.72867300000507;6;-7;107;Houborg et al. (2023);Experiment 2;Orientation
7;17;33;16;1.62878260000434;6;-40;108;Houborg et al. (2023);Experiment 2;Orientation
7;137;153;16;1.7286574000027;6;60;109;Houborg et al. (2023);Experiment 2;Orientation
7;103;123;20;1.31183079999755;6;34;110;Houborg et al. (2023);Experiment 2;Orientation
7;1;3;2;1.39527860000089;6;-78;111;Houborg et al. (2023);Experiment 2;Orientation
7;177;3;6;1.47860049999144;6;4;112;Houborg et al. (2023);Experiment 2;Orientation
7;28;22;-6;1.54524079999828;6;-31;113;Houborg et al. (2023);Experiment 2;Orientation
7;82;59;-23;1.09488740000234;6;-54;114;Houborg et al. (2023);Experiment 2;Orientation
7;9;178;-11;2.04561000000103;6;73;115;Houborg et al. (2023);Experiment 2;Orientation
7;39;27;-12;1.42849429999478;6;-30;116;Houborg et al. (2023);Experiment 2;Orientation
7;65;32;-33;1.69554970000172;6;-26;117;Houborg et al. (2023);Experiment 2;Orientation
7;70;61;-9;1.04478199999721;6;-5;118;Houborg et al. (2023);Experiment 2;Orientation
7;134;145;11;1.0450364999997;6;-64;119;Houborg et al. (2023);Experiment 2;Orientation
7;112;118;6;1.26175669999793;6;22;120;Houborg et al. (2023);Experiment 2;Orientation
7;118;126;8;1.86229779999121;7;-6;121;Houborg et al. (2023);Experiment 2;Orientation
7;153;152;-1;0.694558399991365;7;-35;122;Houborg et al. (2023);Experiment 2;Orientation
7;113;120;7;1.11167179999757;7;40;123;Houborg et al. (2023);Experiment 2;Orientation
7;132;136;4;0.928080300000147;7;-19;124;Houborg et al. (2023);Experiment 2;Orientation
7;157;164;7;1.4953164000035;7;-25;125;Houborg et al. (2023);Experiment 2;Orientation
7;126;126;0;1.34517570000025;7;31;126;Houborg et al. (2023);Experiment 2;Orientation
7;66;37;-29;3.41346709999198;7;60;127;Houborg et al. (2023);Experiment 2;Orientation
7;134;144;10;1.54500460000418;7;-68;128;Houborg et al. (2023);Experiment 2;Orientation
7;27;25;-2;1.3451175000082;7;-73;129;Houborg et al. (2023);Experiment 2;Orientation
7;33;27;-6;2.81301990000065;7;-6;130;Houborg et al. (2023);Experiment 2;Orientation
7;7;17;10;1.67879230000835;7;26;131;Houborg et al. (2023);Experiment 2;Orientation
7;40;42;2;1.74546259999624;7;-33;132;Houborg et al. (2023);Experiment 2;Orientation
7;19;18;-1;1.76207399999839;7;21;133;Houborg et al. (2023);Experiment 2;Orientation
7;164;165;1;1.62873880000552;7;35;134;Houborg et al. (2023);Experiment 2;Orientation
7;8;17;9;1.91227230000368;7;-24;135;Houborg et al. (2023);Experiment 2;Orientation
7;64;69;5;1.71205580000242;7;-56;136;Houborg et al. (2023);Experiment 2;Orientation
7;33;14;-19;1.47871650000161;7;31;137;Houborg et al. (2023);Experiment 2;Orientation
7;65;58;-7;2.47945539999637;7;-32;138;Houborg et al. (2023);Experiment 2;Orientation
7;82;69;-13;1.42855369999597;7;-17;139;Houborg et al. (2023);Experiment 2;Orientation
7;55;41;-14;1.19521859999804;7;27;140;Houborg et al. (2023);Experiment 2;Orientation
7;57;47;-10;1.37853489999543;8;-2;141;Houborg et al. (2023);Experiment 2;Orientation
7;149;149;0;1.1114699000027;8;88;142;Houborg et al. (2023);Experiment 2;Orientation
7;160;170;10;1.52851819999341;8;-11;143;Houborg et al. (2023);Experiment 2;Orientation
7;4;15;11;1.37841379999008;8;-24;144;Houborg et al. (2023);Experiment 2;Orientation
7;151;161;10;1.62866469999426;8;33;145;Houborg et al. (2023);Experiment 2;Orientation
7;8;168;-20;3.11329160000605;8;-37;146;Houborg et al. (2023);Experiment 2;Orientation
7;158;164;6;1.6622628000041;8;30;147;Houborg et al. (2023);Experiment 2;Orientation
7;163;160;-3;1.82885720000195;8;-5;148;Houborg et al. (2023);Experiment 2;Orientation
7;6;13;7;1.4284570000018;8;-23;149;Houborg et al. (2023);Experiment 2;Orientation
7;169;160;-9;1.32844490000571;8;17;150;Houborg et al. (2023);Experiment 2;Orientation
7;128;139;11;1.87872910000442;8;41;151;Houborg et al. (2023);Experiment 2;Orientation
7;170;157;-13;1.74552729999414;8;-42;152;Houborg et al. (2023);Experiment 2;Orientation
7;168;165;-3;1.67837259999942;8;2;153;Houborg et al. (2023);Experiment 2;Orientation
7;87;81;-6;1.6621703000128;8;81;154;Houborg et al. (2023);Experiment 2;Orientation
7;92;101;9;1.99555840001267;8;-5;155;Houborg et al. (2023);Experiment 2;Orientation
7;63;67;4;3.54701169999316;8;29;156;Houborg et al. (2023);Experiment 2;Orientation
7;104;110;6;1.5451871999976;8;-41;157;Houborg et al. (2023);Experiment 2;Orientation
7;175;160;-15;1.57884449999256;8;-71;158;Houborg et al. (2023);Experiment 2;Orientation
7;30;36;6;1.61196039999777;8;-35;159;Houborg et al. (2023);Experiment 2;Orientation
7;10;22;12;1.79549819999374;8;20;160;Houborg et al. (2023);Experiment 2;Orientation
7;151;147;-4;1.16166330000851;9;39;161;Houborg et al. (2023);Experiment 2;Orientation
7;149;147;-2;1.54534840000269;9;2;162;Houborg et al. (2023);Experiment 2;Orientation
7;122;122;0;1.41189200000372;9;27;163;Houborg et al. (2023);Experiment 2;Orientation
7;131;126;-5;1.49667029999546;9;-9;164;Houborg et al. (2023);Experiment 2;Orientation
7;18;25;7;1.19509709998965;9;-67;165;Houborg et al. (2023);Experiment 2;Orientation
7;130;125;-5;1.21177779999562;9;68;166;Houborg et al. (2023);Experiment 2;Orientation
7;41;39;-2;1.17831620000652;9;89;167;Houborg et al. (2023);Experiment 2;Orientation
7;146;145;-1;2.31268350000028;9;75;168;Houborg et al. (2023);Experiment 2;Orientation
7;175;0;5;2.56228739999642;9;-29;169;Houborg et al. (2023);Experiment 2;Orientation
7;52;50;-2;0.794648900002358;9;-57;170;Houborg et al. (2023);Experiment 2;Orientation
7;13;25;12;2.59623369999463;9;39;171;Houborg et al. (2023);Experiment 2;Orientation
7;16;23;7;1.49531300000672;9;-3;172;Houborg et al. (2023);Experiment 2;Orientation
7;85;89;4;1.3283761000057;9;-69;173;Houborg et al. (2023);Experiment 2;Orientation
7;23;18;-5;1.14507400000002;9;62;174;Houborg et al. (2023);Experiment 2;Orientation
7;147;146;-1;1.24517420001212;9;56;175;Houborg et al. (2023);Experiment 2;Orientation
7;170;172;2;0.894738899994991;9;-23;176;Houborg et al. (2023);Experiment 2;Orientation
7;177;170;-7;1.24495259999821;9;-7;177;Houborg et al. (2023);Experiment 2;Orientation
7;114;132;18;0.961558199996944;9;63;178;Houborg et al. (2023);Experiment 2;Orientation
7;64;63;-1;1.24507869999798;9;50;179;Houborg et al. (2023);Experiment 2;Orientation
7;28;57;29;1.24512219999451;9;36;180;Houborg et al. (2023);Experiment 2;Orientation
7;129;113;-16;0.944685399997979;10;79;181;Houborg et al. (2023);Experiment 2;Orientation
7;32;23;-9;0.978369000004022;10;-83;182;Houborg et al. (2023);Experiment 2;Orientation
7;3;16;13;0.74462099999073;10;29;183;Houborg et al. (2023);Experiment 2;Orientation
7;76;68;-8;0.97823390000849;10;-73;184;Houborg et al. (2023);Experiment 2;Orientation
7;89;87;-2;1.57870159999584;10;-13;185;Houborg et al. (2023);Experiment 2;Orientation
7;101;107;6;0.994836300000316;10;-12;186;Houborg et al. (2023);Experiment 2;Orientation
7;76;65;-11;1.5620854000008;10;25;187;Houborg et al. (2023);Experiment 2;Orientation
7;11;24;13;0.994754700004705;10;65;188;Houborg et al. (2023);Experiment 2;Orientation
7;86;84;-2;1.21169110000483;10;-75;189;Houborg et al. (2023);Experiment 2;Orientation
7;153;15;42;1.76214469999832;10;-67;190;Houborg et al. (2023);Experiment 2;Orientation
7;34;24;-10;1.24484329999541;10;-61;191;Houborg et al. (2023);Experiment 2;Orientation
7;25;29;4;1.24496300000465;10;9;192;Houborg et al. (2023);Experiment 2;Orientation
7;132;135;3;1.12829300000158;10;73;193;Houborg et al. (2023);Experiment 2;Orientation
7;44;45;1;0.894734600005904;10;88;194;Houborg et al. (2023);Experiment 2;Orientation
7;27;32;5;1.36185540001316;10;17;195;Houborg et al. (2023);Experiment 2;Orientation
7;148;163;15;1.22844949999126;10;59;196;Houborg et al. (2023);Experiment 2;Orientation
7;150;155;5;1.34505220000574;10;-2;197;Houborg et al. (2023);Experiment 2;Orientation
7;55;51;-4;1.81234459999541;10;-85;198;Houborg et al. (2023);Experiment 2;Orientation
7;60;45;-15;1.27835300000152;10;-5;199;Houborg et al. (2023);Experiment 2;Orientation
7;70;64;-6;1.54536360000202;10;-10;200;Houborg et al. (2023);Experiment 2;Orientation
8;69;44;-25;2.82554656593129;1;NaN;1;Houborg et al. (2023);Experiment 2;Orientation
8;117;126;9;2.66155882924795;1;-48;2;Houborg et al. (2023);Experiment 2;Orientation
8;4;9;5;2.83082486409694;1;-67;3;Houborg et al. (2023);Experiment 2;Orientation
8;12;47;35;2.80743982782587;1;-8;4;Houborg et al. (2023);Experiment 2;Orientation
8;179;1;2;2.20606231293641;1;13;5;Houborg et al. (2023);Experiment 2;Orientation
8;172;166;-6;3.07958567584865;1;7;6;Houborg et al. (2023);Experiment 2;Orientation
8;130;139;9;3.09829593100585;1;42;7;Houborg et al. (2023);Experiment 2;Orientation
8;156;166;10;2.52287396392785;1;-26;8;Houborg et al. (2023);Experiment 2;Orientation
8;73;69;-4;1.82231533993036;1;83;9;Houborg et al. (2023);Experiment 2;Orientation
8;168;170;2;2.37338237743825;1;85;10;Houborg et al. (2023);Experiment 2;Orientation
8;155;144;-11;2.17614958807826;1;13;11;Houborg et al. (2023);Experiment 2;Orientation
8;164;144;-20;2.17231515445746;1;-9;12;Houborg et al. (2023);Experiment 2;Orientation
8;174;156;-18;2.16183801763691;1;-10;13;Houborg et al. (2023);Experiment 2;Orientation
8;159;156;-3;2.99228290095925;1;15;14;Houborg et al. (2023);Experiment 2;Orientation
8;66;45;-21;2.02229208964854;1;-87;15;Houborg et al. (2023);Experiment 2;Orientation
8;118;135;17;4.34741044347174;1;-52;16;Houborg et al. (2023);Experiment 2;Orientation
8;160;150;-10;2.66752906912006;1;-42;17;Houborg et al. (2023);Experiment 2;Orientation
8;93;116;23;2.32304314640351;1;67;18;Houborg et al. (2023);Experiment 2;Orientation
8;56;53;-3;2.12332765269093;1;37;19;Houborg et al. (2023);Experiment 2;Orientation
8;45;41;-4;2.65972323575988;1;11;20;Houborg et al. (2023);Experiment 2;Orientation
8;168;165;-3;2.74110894952901;2;57;21;Houborg et al. (2023);Experiment 2;Orientation
8;40;22;-18;4.73090481758118;2;-52;22;Houborg et al. (2023);Experiment 2;Orientation
8;177;163;-14;1.87747373827733;2;43;23;Houborg et al. (2023);Experiment 2;Orientation
8;91;101;10;2.52524536428973;2;86;24;Houborg et al. (2023);Experiment 2;Orientation
8;4;22;18;1.95518331811763;2;87;25;Houborg et al. (2023);Experiment 2;Orientation
8;47;51;4;1.88923829514533;2;-43;26;Houborg et al. (2023);Experiment 2;Orientation
8;124;134;10;2.77806816529483;2;-77;27;Houborg et al. (2023);Experiment 2;Orientation
8;132;123;-9;3.27660605940036;2;-8;28;Houborg et al. (2023);Experiment 2;Orientation
8;103;111;8;2.07241520471871;2;29;29;Houborg et al. (2023);Experiment 2;Orientation
8;179;170;-9;2.14504807093181;2;-76;30;Houborg et al. (2023);Experiment 2;Orientation
8;130;140;10;2.69678973616101;2;49;31;Houborg et al. (2023);Experiment 2;Orientation
8;78;72;-6;2.40762669523247;2;52;32;Houborg et al. (2023);Experiment 2;Orientation
8;115;122;7;2.0110027405899;2;-37;33;Houborg et al. (2023);Experiment 2;Orientation
8;32;34;2;2.75169027969241;2;83;34;Houborg et al. (2023);Experiment 2;Orientation
8;1;178;-3;3.31545713916421;2;31;35;Houborg et al. (2023);Experiment 2;Orientation
8;40;44;4;2.3573486818932;2;-39;36;Houborg et al. (2023);Experiment 2;Orientation
8;23;29;6;3.4277103219647;2;17;37;Houborg et al. (2023);Experiment 2;Orientation
8;79;34;-45;4.88074330263771;2;-56;38;Houborg et al. (2023);Experiment 2;Orientation
8;124;135;11;1.60745998611674;2;-45;39;Houborg et al. (2023);Experiment 2;Orientation
8;65;51;-14;2.57974242931232;2;59;40;Houborg et al. (2023);Experiment 2;Orientation
8;137;153;16;1.88871052721515;3;-72;41;Houborg et al. (2023);Experiment 2;Orientation
8;13;139;-54;4.66484230663627;3;-56;42;Houborg et al. (2023);Experiment 2;Orientation
8;71;70;-1;2.40824041492306;3;-58;43;Houborg et al. (2023);Experiment 2;Orientation
8;162;157;-5;2.65865409583785;3;89;44;Houborg et al. (2023);Experiment 2;Orientation
8;126;140;14;2.09484333288856;3;36;45;Houborg et al. (2023);Experiment 2;Orientation
8;88;102;14;2.52383241779171;3;38;46;Houborg et al. (2023);Experiment 2;Orientation
8;159;8;29;4.04553614044562;3;-71;47;Houborg et al. (2023);Experiment 2;Orientation
8;167;24;37;4.76852320204489;3;-8;48;Houborg et al. (2023);Experiment 2;Orientation
8;102;110;8;2.56684937048703;3;65;49;Houborg et al. (2023);Experiment 2;Orientation
8;144;138;-6;2.60738949337974;3;-42;50;Houborg et al. (2023);Experiment 2;Orientation
8;171;171;0;2.74073608033359;3;-27;51;Houborg et al. (2023);Experiment 2;Orientation
8;175;173;-2;4.2810987343546;3;-4;52;Houborg et al. (2023);Experiment 2;Orientation
8;154;160;6;2.64178314455785;3;21;53;Houborg et al. (2023);Experiment 2;Orientation
8;132;137;5;2.78442735178396;3;22;54;Houborg et al. (2023);Experiment 2;Orientation
8;133;131;-2;2.69683734979481;3;-1;55;Houborg et al. (2023);Experiment 2;Orientation
8;171;16;25;3.059140000958;3;-38;56;Houborg et al. (2023);Experiment 2;Orientation
8;23;38;15;2.88072166009806;3;-32;57;Houborg et al. (2023);Experiment 2;Orientation
8;82;81;-1;2.59085059980862;3;-59;58;Houborg et al. (2023);Experiment 2;Orientation
8;64;72;8;2.061444000341;3;18;59;Houborg et al. (2023);Experiment 2;Orientation
8;93;80;-13;3.56063457066193;3;-29;60;Houborg et al. (2023);Experiment 2;Orientation
8;21;26;5;2.55791565356776;4;72;61;Houborg et al. (2023);Experiment 2;Orientation
8;49;43;-6;3.0597694888711;4;-28;62;Houborg et al. (2023);Experiment 2;Orientation
8;49;46;-3;2.09294559434056;4;0;63;Houborg et al. (2023);Experiment 2;Orientation
8;54;52;-2;2.99564614635892;4;-5;64;Houborg et al. (2023);Experiment 2;Orientation
8;141;139;-2;3.72908561024815;4;-87;65;Houborg et al. (2023);Experiment 2;Orientation
8;120;129;9;2.15587488911115;4;21;66;Houborg et al. (2023);Experiment 2;Orientation
8;137;133;-4;2.16548323375173;4;-17;67;Houborg et al. (2023);Experiment 2;Orientation
8;86;77;-9;2.07587182195857;4;51;68;Houborg et al. (2023);Experiment 2;Orientation
8;145;142;-3;2.8414915271569;4;-59;69;Houborg et al. (2023);Experiment 2;Orientation
8;53;36;-17;1.82242015143856;4;-88;70;Houborg et al. (2023);Experiment 2;Orientation
8;64;56;-8;2.55807333462872;4;-11;71;Houborg et al. (2023);Experiment 2;Orientation
8;67;67;0;3.22973303031176;4;-3;72;Houborg et al. (2023);Experiment 2;Orientation
8;123;135;12;2.1951816980727;4;-56;73;Houborg et al. (2023);Experiment 2;Orientation
8;173;156;-17;3.73356715496629;4;-50;74;Houborg et al. (2023);Experiment 2;Orientation
8;53;41;-12;3.05238846689463;4;-60;75;Houborg et al. (2023);Experiment 2;Orientation
8;12;21;9;3.27745599159971;4;41;76;Houborg et al. (2023);Experiment 2;Orientation
8;42;63;21;2.39589923992753;4;-30;77;Houborg et al. (2023);Experiment 2;Orientation
8;43;39;-4;3.34678713907488;4;-1;78;Houborg et al. (2023);Experiment 2;Orientation
8;149;150;1;2.8752850627061;4;74;79;Houborg et al. (2023);Experiment 2;Orientation
8;36;36;0;2.82409126218408;4;-67;80;Houborg et al. (2023);Experiment 2;Orientation
8;13;20;7;2.29548234329559;5;23;81;Houborg et al. (2023);Experiment 2;Orientation
8;42;43;1;2.73133735847659;5;-29;82;Houborg et al. (2023);Experiment 2;Orientation
8;127;137;10;4.09539583511651;5;-85;83;Houborg et al. (2023);Experiment 2;Orientation
8;11;6;-5;4.13253128249198;5;-64;84;Houborg et al. (2023);Experiment 2;Orientation
8;16;15;-1;2.7803180583287;5;-5;85;Houborg et al. (2023);Experiment 2;Orientation
8;80;74;-6;2.5236759732943;5;-64;86;Houborg et al. (2023);Experiment 2;Orientation
8;35;38;3;3.27992478292435;5;45;87;Houborg et al. (2023);Experiment 2;Orientation
8;108;123;15;2.55825544102117;5;-73;88;Houborg et al. (2023);Experiment 2;Orientation
8;100;107;7;2.29539360920899;5;8;89;Houborg et al. (2023);Experiment 2;Orientation
8;36;32;-4;1.85530532011762;5;64;90;Houborg et al. (2023);Experiment 2;Orientation
8;82;54;-28;2.41576087614521;5;-46;91;Houborg et al. (2023);Experiment 2;Orientation
8;138;142;4;2.245350262383;5;-56;92;Houborg et al. (2023);Experiment 2;Orientation
8;63;53;-10;3.3155050619971;5;75;93;Houborg et al. (2023);Experiment 2;Orientation
8;40;45;5;2.73431814974174;5;23;94;Houborg et al. (2023);Experiment 2;Orientation
8;146;139;-7;2.44388964050449;5;74;95;Houborg et al. (2023);Experiment 2;Orientation
8;169;160;-9;4.13487702095881;5;-23;96;Houborg et al. (2023);Experiment 2;Orientation
8;92;87;-5;3.71676607779227;5;77;97;Houborg et al. (2023);Experiment 2;Orientation
8;45;51;6;2.95993570308201;5;47;98;Houborg et al. (2023);Experiment 2;Orientation
8;177;173;-4;4.43594745942391;5;48;99;Houborg et al. (2023);Experiment 2;Orientation
8;34;49;15;2.52322209905833;5;-37;100;Houborg et al. (2023);Experiment 2;Orientation
8;17;32;15;3.67908678529784;6;17;101;Houborg et al. (2023);Experiment 2;Orientation
8;24;59;35;2.77549301623367;6;-7;102;Houborg et al. (2023);Experiment 2;Orientation
8;157;151;-6;3.17924941331148;6;47;103;Houborg et al. (2023);Experiment 2;Orientation
8;158;152;-6;2.36646945192479;6;-1;104;Houborg et al. (2023);Experiment 2;Orientation
8;100;104;4;3.51138859544881;6;58;105;Houborg et al. (2023);Experiment 2;Orientation
8;151;127;-24;2.98552827513777;6;-51;106;Houborg et al. (2023);Experiment 2;Orientation
8;107;110;3;3.96282590506598;6;44;107;Houborg et al. (2023);Experiment 2;Orientation
8;2;177;-5;2.75897607440129;6;-75;108;Houborg et al. (2023);Experiment 2;Orientation
8;80;62;-18;2.49462863942608;6;-78;109;Houborg et al. (2023);Experiment 2;Orientation
8;108;117;9;3.9322029966861;6;-28;110;Houborg et al. (2023);Experiment 2;Orientation
8;175;33;38;3.22781550441869;6;-67;111;Houborg et al. (2023);Experiment 2;Orientation
8;22;27;5;2.74481940246187;6;-27;112;Houborg et al. (2023);Experiment 2;Orientation
8;168;170;2;2.64032536721788;6;34;113;Houborg et al. (2023);Experiment 2;Orientation
8;124;131;7;2.94203147687949;6;44;114;Houborg et al. (2023);Experiment 2;Orientation
8;93;79;-14;2.47974137822166;6;31;115;Houborg et al. (2023);Experiment 2;Orientation
8;47;62;15;4.88264351454563;6;46;116;Houborg et al. (2023);Experiment 2;Orientation
8;47;61;14;5.27028057328425;6;0;117;Houborg et al. (2023);Experiment 2;Orientation
8;176;171;-5;3.01243671099655;6;51;118;Houborg et al. (2023);Experiment 2;Orientation
8;12;18;6;4.03283848264255;6;-16;119;Houborg et al. (2023);Experiment 2;Orientation
8;24;45;21;2.54079241259024;6;-12;120;Houborg et al. (2023);Experiment 2;Orientation
8;114;114;0;3.19851989997551;7;-90;121;Houborg et al. (2023);Experiment 2;Orientation
8;118;108;-10;2.80940125696361;7;-4;122;Houborg et al. (2023);Experiment 2;Orientation
8;108;98;-10;2.75745738903061;7;10;123;Houborg et al. (2023);Experiment 2;Orientation
8;8;22;14;4.59656762215309;7;-80;124;Houborg et al. (2023);Experiment 2;Orientation
8;9;11;2;2.97482018149458;7;-1;125;Houborg et al. (2023);Experiment 2;Orientation
8;116;127;11;2.30766336387023;7;73;126;Houborg et al. (2023);Experiment 2;Orientation
8;45;46;1;2.25769174657762;7;71;127;Houborg et al. (2023);Experiment 2;Orientation
8;121;120;-1;3.10897557996213;7;-76;128;Houborg et al. (2023);Experiment 2;Orientation
8;134;133;-1;2.38982387934811;7;-13;129;Houborg et al. (2023);Experiment 2;Orientation
8;61;52;-9;1.90860741003416;7;73;130;Houborg et al. (2023);Experiment 2;Orientation
8;179;173;-6;3.44317543786019;7;62;131;Houborg et al. (2023);Experiment 2;Orientation
8;86;86;0;3.69576048059389;7;-87;132;Houborg et al. (2023);Experiment 2;Orientation
8;122;112;-10;2.27216594479978;7;-36;133;Houborg et al. (2023);Experiment 2;Orientation
8;116;96;-20;2.14286959823221;7;6;134;Houborg et al. (2023);Experiment 2;Orientation
8;40;38;-2;2.70721956877969;7;76;135;Houborg et al. (2023);Experiment 2;Orientation
8;75;68;-7;3.19850660534576;7;-35;136;Houborg et al. (2023);Experiment 2;Orientation
8;132;120;-12;2.44432836514898;7;-57;137;Houborg et al. (2023);Experiment 2;Orientation
8;13;22;9;2.97539494466037;7;-61;138;Houborg et al. (2023);Experiment 2;Orientation
8;170;155;-15;2.45773558807559;7;23;139;Houborg et al. (2023);Experiment 2;Orientation
8;141;155;14;3.12941259774379;7;29;140;Houborg et al. (2023);Experiment 2;Orientation
8;160;160;0;1.63120150519535;8;-19;141;Houborg et al. (2023);Experiment 2;Orientation
8;34;31;-3;1.93988206679933;8;-54;142;Houborg et al. (2023);Experiment 2;Orientation
8;134;140;6;3.52825398137793;8;80;143;Houborg et al. (2023);Experiment 2;Orientation
8;28;31;3;2.82407827675343;8;-74;144;Houborg et al. (2023);Experiment 2;Orientation
8;166;151;-15;2.95222726115026;8;42;145;Houborg et al. (2023);Experiment 2;Orientation
8;139;145;6;3.14193155034445;8;27;146;Houborg et al. (2023);Experiment 2;Orientation
8;75;61;-14;2.99268823419698;8;64;147;Houborg et al. (2023);Experiment 2;Orientation
8;5;20;15;3.03136029932648;8;70;148;Houborg et al. (2023);Experiment 2;Orientation
8;20;22;2;2.3890750487335;8;-15;149;Houborg et al. (2023);Experiment 2;Orientation
8;130;131;1;3.89579288242385;8;70;150;Houborg et al. (2023);Experiment 2;Orientation
8;128;140;12;4.46766671538353;8;2;151;Houborg et al. (2023);Experiment 2;Orientation
8;36;39;3;2.84513210598379;8;-88;152;Houborg et al. (2023);Experiment 2;Orientation
8;97;104;7;3.22700112801977;8;-61;153;Houborg et al. (2023);Experiment 2;Orientation
8;104;100;-4;2.30763739277609;8;-7;154;Houborg et al. (2023);Experiment 2;Orientation
8;3;18;15;5.50151342945173;8;-79;155;Houborg et al. (2023);Experiment 2;Orientation
8;93;95;2;2.75069348770194;8;-90;156;Houborg et al. (2023);Experiment 2;Orientation
8;115;108;-7;3.47674141777679;8;-22;157;Houborg et al. (2023);Experiment 2;Orientation
8;9;24;15;2.42937586712651;8;-74;158;Houborg et al. (2023);Experiment 2;Orientation
8;121;111;-10;3.23493681615219;8;68;159;Houborg et al. (2023);Experiment 2;Orientation
8;135;131;-4;2.9978258558549;8;-14;160;Houborg et al. (2023);Experiment 2;Orientation
8;3;11;8;2.22878137859516;9;-48;161;Houborg et al. (2023);Experiment 2;Orientation
8;109;113;4;3.35334172635339;9;74;162;Houborg et al. (2023);Experiment 2;Orientation
8;1;5;4;4.37941939965822;9;-72;163;Houborg et al. (2023);Experiment 2;Orientation
8;72;73;1;2.87510141078383;9;-71;164;Houborg et al. (2023);Experiment 2;Orientation
8;65;57;-8;2.93103522900492;9;7;165;Houborg et al. (2023);Experiment 2;Orientation
