obs;theta;resp;error;rt;block;delta;trial;cond;study;experiment;stimulus
2;1;179;-2;4.613972;1;NaN;1;0;Ozkirli & Pascucci (2023);Experiment 1;Orientation
2;29;27;-2;0.9308208;1;-28;2;0;Ozkirli & Pascucci (2023);Experiment 1;Orientation
2;24;7;-17;2.87253;1;5;3;1;Ozkirli & Pascucci (2023);Experiment 1;Orientation
2;30;25;-5;2.996785;1;-6;4;0;Ozkirli & Pascucci (2023);Experiment 1;Orientation
2;159;147;-12;1.605828;1;51;5;0;Ozkirli & Pascucci (2023);Experiment 1;Orientation
2;18;17;-1;0.9891354;1;-39;6;1;Ozkirli & Pascucci (2023);Experiment 1;Orientation
2;50;64;14;2.380428;1;-32;7;0;Ozkirli & Pascucci (2023);Experiment 1;Orientation
2;38;49;11;2.71335;1;12;8;0;Ozkirli & Pascucci (2023);Experiment 1;Orientation
2;69;60;-9;1.881376;1;-31;9;0;Ozkirli & Pascucci (2023);Experiment 1;Orientation
2;66;65;-1;1.430938;1;3;10;0;Ozkirli & Pascucci (2023);Experiment 1;Orientation
2;156;141;-15;1.522592;1;-90;11;0;Ozkirli & Pascucci (2023);Experiment 1;Orientation
2;81;86;5;2.305937;1;75;12;0;Ozkirli & Pascucci (2023);Experiment 1;Orientation
2;121;119;-2;1.947356;1;-40;13;1;Ozkirli & Pascucci (2023);Experiment 1;Orientation
2;41;40;-1;2.930573;1;80;14;0;Ozkirli & Pascucci (2023);Experiment 1;Orientation
2;25;10;-15;2.747487;1;16;15;1;Ozkirli & Pascucci (2023);Experiment 1;Orientation
2;110;107;-3;2.439165;1;-85;16;0;Ozkirli & Pascucci (2023);Experiment 1;Orientation
2;22;13;-9;1.789134;1;88;17;1;Ozkirli & Pascucci (2023);Experiment 1;Orientation
2;147;136;-11;1.305865;1;55;18;1;Ozkirli & Pascucci (2023);Experiment 1;Orientation
2;27;28;1;2.855706;1;-60;19;1;Ozkirli & Pascucci (2023);Experiment 1;Orientation
2;43;61;18;0.5316079;1;-16;20;0;Ozkirli & Pascucci (2023);Experiment 1;Orientation
2;61;59;-2;2.289031;1;-18;21;0;Ozkirli & Pascucci (2023);Experiment 1;Orientation
2;59;65;6;2.538824;1;2;22;0;Ozkirli & Pascucci (2023);Experiment 1;Orientation
2;86;89;3;1.705512;1;-27;23;1;Ozkirli & Pascucci (2023);Experiment 1;Orientation
2;107;108;1;0.8556321;1;-21;24;0;Ozkirli & Pascucci (2023);Experiment 1;Orientation
2;104;99;-5;2.347675;1;3;25;0;Ozkirli & Pascucci (2023);Experiment 1;Orientation
2;76;83;7;0.84753;1;28;26;1;Ozkirli & Pascucci (2023);Experiment 1;Orientation
2;170;178;8;1.638982;1;86;27;0;Ozkirli & Pascucci (2023);Experiment 1;Orientation
2;137;140;3;1.514173;1;33;28;1;Ozkirli & Pascucci (2023);Experiment 1;Orientation
2;165;170;5;1.372627;1;-28;29;0;Ozkirli & Pascucci (2023);Experiment 1;Orientation
2;39;25;-14;1.064146;1;-54;30;0;Ozkirli & Pascucci (2023);Experiment 1;Orientation
2;43;50;7;1.331069;1;-4;31;0;Ozkirli & Pascucci (2023);Experiment 1;Orientation
2;127;126;-1;1.430873;1;-84;32;0;Ozkirli & Pascucci (2023);Experiment 1;Orientation
2;23;16;-7;1.89731;1;-76;33;1;Ozkirli & Pascucci (2023);Experiment 1;Orientation
2;137;148;11;1.431417;1;66;34;0;Ozkirli & Pascucci (2023);Experiment 1;Orientation
2;151;146;-5;0.7310085;1;-14;35;1;Ozkirli & Pascucci (2023);Experiment 1;Orientation
2;179;178;-1;0.9142605;1;-28;36;0;Ozkirli & Pascucci (2023);Experiment 1;Orientation
2;157;153;-4;0.9477363;1;22;37;0;Ozkirli & Pascucci (2023);Experiment 1;Orientation
2;149;144;-5;1.097488;1;8;38;0;Ozkirli & Pascucci (2023);Experiment 1;Orientation
2;113;115;2;1.922802;1;36;39;0;Ozkirli & Pascucci (2023);Experiment 1;Orientation
2;177;1;4;1.372499;1;-64;40;1;Ozkirli & Pascucci (2023);Experiment 1;Orientation
2;37;42;5;2.122603;2;-40;41;1;Ozkirli & Pascucci (2023);Experiment 1;Orientation
2;60;62;2;3.488758;2;-23;42;0;Ozkirli & Pascucci (2023);Experiment 1;Orientation
2;139;114;-25;2.938703;2;-79;43;1;Ozkirli & Pascucci (2023);Experiment 1;Orientation
2;31;32;1;1.222746;2;-72;44;0;Ozkirli & Pascucci (2023);Experiment 1;Orientation
2;77;72;-5;1.355503;2;-46;45;0;Ozkirli & Pascucci (2023);Experiment 1;Orientation
2;180;4;4;4.04721;2;77;46;0;Ozkirli & Pascucci (2023);Experiment 1;Orientation
2;54;53;-1;1.147025;2;-54;47;0;Ozkirli & Pascucci (2023);Experiment 1;Orientation
2;93;90;-3;2.239058;2;-39;48;0;Ozkirli & Pascucci (2023);Experiment 1;Orientation
2;131;130;-1;1.265682;2;-38;49;0;Ozkirli & Pascucci (2023);Experiment 1;Orientation
2;157;162;5;1.139269;2;-26;50;1;Ozkirli & Pascucci (2023);Experiment 1;Orientation
2;92;90;-2;2.071764;2;65;51;0;Ozkirli & Pascucci (2023);Experiment 1;Orientation
2;151;141;-10;1.039446;2;-59;52;1;Ozkirli & Pascucci (2023);Experiment 1;Orientation
2;69;59;-10;1.580567;2;82;53;1;Ozkirli & Pascucci (2023);Experiment 1;Orientation
2;146;151;5;1.222521;2;-77;54;0;Ozkirli & Pascucci (2023);Experiment 1;Orientation
2;62;62;0;2.122373;2;84;55;0;Ozkirli & Pascucci (2023);Experiment 1;Orientation
2;25;179;-26;1.691001;2;37;56;1;Ozkirli & Pascucci (2023);Experiment 1;Orientation
2;47;26;-21;1.430901;2;-22;57;1;Ozkirli & Pascucci (2023);Experiment 1;Orientation
2;85;90;5;1.380364;2;-38;58;0;Ozkirli & Pascucci (2023);Experiment 1;Orientation
2;73;74;1;0.95704;2;12;59;1;Ozkirli & Pascucci (2023);Experiment 1;Orientation
2;18;3;-15;0.8057189;2;55;60;1;Ozkirli & Pascucci (2023);Experiment 1;Orientation
2;93;96;3;1.397665;2;-75;61;0;Ozkirli & Pascucci (2023);Experiment 1;Orientation
2;29;16;-13;1.014286;2;64;62;0;Ozkirli & Pascucci (2023);Experiment 1;Orientation
2;164;156;-8;2.413691;2;45;63;0;Ozkirli & Pascucci (2023);Experiment 1;Orientation
2;133;59;-74;1.839254;2;31;64;1;Ozkirli & Pascucci (2023);Experiment 1;Orientation
2;61;76;15;0.9976335;2;72;65;1;Ozkirli & Pascucci (2023);Experiment 1;Orientation
2;38;39;1;0.8476597;2;23;66;0;Ozkirli & Pascucci (2023);Experiment 1;Orientation
2;160;152;-8;3.539116;2;58;67;1;Ozkirli & Pascucci (2023);Experiment 1;Orientation
2;176;173;-3;0.9308398;2;-16;68;0;Ozkirli & Pascucci (2023);Experiment 1;Orientation
2;33;32;-1;0.8972771;2;-37;69;1;Ozkirli & Pascucci (2023);Experiment 1;Orientation
2;13;0;-13;0.789474;2;20;70;1;Ozkirli & Pascucci (2023);Experiment 1;Orientation
2;57;68;11;1.764745;2;-44;71;0;Ozkirli & Pascucci (2023);Experiment 1;Orientation
2;174;0;6;1.181128;2;63;72;1;Ozkirli & Pascucci (2023);Experiment 1;Orientation
2;98;105;7;1.547667;2;76;73;0;Ozkirli & Pascucci (2023);Experiment 1;Orientation
2;172;172;0;1.414164;2;-74;74;0;Ozkirli & Pascucci (2023);Experiment 1;Orientation
2;152;164;12;0.9726469;2;20;75;1;Ozkirli & Pascucci (2023);Experiment 1;Orientation
2;180;3;3;1.130564;2;-28;76;1;Ozkirli & Pascucci (2023);Experiment 1;Orientation
2;114;117;3;1.230784;2;66;77;0;Ozkirli & Pascucci (2023);Experiment 1;Orientation
2;122;108;-14;1.189267;2;-8;78;1;Ozkirli & Pascucci (2023);Experiment 1;Orientation
2;94;90;-4;1.147507;2;28;79;1;Ozkirli & Pascucci (2023);Experiment 1;Orientation
2;146;151;5;1.139171;2;-52;80;1;Ozkirli & Pascucci (2023);Experiment 1;Orientation
2;106;103;-3;0.6393652;3;40;81;0;Ozkirli & Pascucci (2023);Experiment 1;Orientation
2;44;60;16;1.897444;3;62;82;1;Ozkirli & Pascucci (2023);Experiment 1;Orientation
2;82;73;-9;0.3726168;3;-38;83;1;Ozkirli & Pascucci (2023);Experiment 1;Orientation
2;170;177;7;2.280484;3;-88;84;0;Ozkirli & Pascucci (2023);Experiment 1;Orientation
2;177;174;-3;1.397349;3;-7;85;0;Ozkirli & Pascucci (2023);Experiment 1;Orientation
2;47;41;-6;0.9473583;3;-50;86;0;Ozkirli & Pascucci (2023);Experiment 1;Orientation
2;121;120;-1;1.082124;3;-74;87;0;Ozkirli & Pascucci (2023);Experiment 1;Orientation
2;174;173;-1;0.8070483;3;-53;88;1;Ozkirli & Pascucci (2023);Experiment 1;Orientation
2;159;164;5;1.397465;3;15;89;0;Ozkirli & Pascucci (2023);Experiment 1;Orientation
2;131;132;1;1.130544;3;28;90;0;Ozkirli & Pascucci (2023);Experiment 1;Orientation
2;29;19;-10;0.7222562;3;-78;91;0;Ozkirli & Pascucci (2023);Experiment 1;Orientation
2;172;168;-4;1.638801;3;37;92;0;Ozkirli & Pascucci (2023);Experiment 1;Orientation
2;166;168;2;1.180601;3;6;93;0;Ozkirli & Pascucci (2023);Experiment 1;Orientation
2;38;34;-4;1.347555;3;-52;94;1;Ozkirli & Pascucci (2023);Experiment 1;Orientation
2;63;69;6;1.230934;3;-25;95;0;Ozkirli & Pascucci (2023);Experiment 1;Orientation
2;140;131;-9;1.088791;3;-77;96;1;Ozkirli & Pascucci (2023);Experiment 1;Orientation
2;149;159;10;0.7642192;3;-9;97;0;Ozkirli & Pascucci (2023);Experiment 1;Orientation
2;99;83;-16;0.5390612;3;50;98;1;Ozkirli & Pascucci (2023);Experiment 1;Orientation
2;17;15;-2;0.947845;3;82;99;1;Ozkirli & Pascucci (2023);Experiment 1;Orientation
2;98;94;-4;0.622558;3;-81;100;1;Ozkirli & Pascucci (2023);Experiment 1;Orientation
2;107;89;-18;1.005945;3;-9;101;1;Ozkirli & Pascucci (2023);Experiment 1;Orientation
2;158;160;2;1.07271;3;-51;102;0;Ozkirli & Pascucci (2023);Experiment 1;Orientation
2;94;95;1;1.464197;3;64;103;1;Ozkirli & Pascucci (2023);Experiment 1;Orientation
2;142;155;13;1.181601;3;-48;104;1;Ozkirli & Pascucci (2023);Experiment 1;Orientation
2;31;20;-11;1.539102;3;-69;105;1;Ozkirli & Pascucci (2023);Experiment 1;Orientation
2;50;54;4;0.7721376;3;-19;106;1;Ozkirli & Pascucci (2023);Experiment 1;Orientation
2;167;174;7;1.106173;3;63;107;1;Ozkirli & Pascucci (2023);Experiment 1;Orientation
2;95;88;-7;0.4728534;3;72;108;0;Ozkirli & Pascucci (2023);Experiment 1;Orientation
2;136;134;-2;1.347709;3;-41;109;1;Ozkirli & Pascucci (2023);Experiment 1;Orientation
2;98;90;-8;3.113926;3;38;110;0;Ozkirli & Pascucci (2023);Experiment 1;Orientation
2;2;6;4;0.8061128;3;-84;111;1;Ozkirli & Pascucci (2023);Experiment 1;Orientation
2;141;145;4;0.9644527;3;41;112;0;Ozkirli & Pascucci (2023);Experiment 1;Orientation
2;176;0;4;2.538844;3;-35;113;0;Ozkirli & Pascucci (2023);Experiment 1;Orientation
2;39;30;-9;1.030694;3;-43;114;0;Ozkirli & Pascucci (2023);Experiment 1;Orientation
2;128;130;2;1.122685;3;-89;115;1;Ozkirli & Pascucci (2023);Experiment 1;Orientation
2;69;71;2;2.105378;3;59;116;1;Ozkirli & Pascucci (2023);Experiment 1;Orientation
2;105;112;7;1.197448;3;-36;117;0;Ozkirli & Pascucci (2023);Experiment 1;Orientation
2;30;26;-4;1.147152;3;75;118;0;Ozkirli & Pascucci (2023);Experiment 1;Orientation
2;165;162;-3;0.6893965;3;45;119;1;Ozkirli & Pascucci (2023);Experiment 1;Orientation
2;153;152;-1;0.8559946;3;12;120;0;Ozkirli & Pascucci (2023);Experiment 1;Orientation
2;25;27;2;0.905714;4;-52;121;0;Ozkirli & Pascucci (2023);Experiment 1;Orientation
2;103;99;-4;1.37234;4;-78;122;1;Ozkirli & Pascucci (2023);Experiment 1;Orientation
2;90;100;10;1.472488;4;13;123;1;Ozkirli & Pascucci (2023);Experiment 1;Orientation
2;136;136;0;0.9642033;4;-46;124;0;Ozkirli & Pascucci (2023);Experiment 1;Orientation
2;167;6;19;1.847378;4;-31;125;1;Ozkirli & Pascucci (2023);Experiment 1;Orientation
2;168;148;-20;1.63076;4;-1;126;1;Ozkirli & Pascucci (2023);Experiment 1;Orientation
2;127;122;-5;0.7640931;4;41;127;0;Ozkirli & Pascucci (2023);Experiment 1;Orientation
2;139;120;-19;0.5894554;4;-12;128;1;Ozkirli & Pascucci (2023);Experiment 1;Orientation
2;117;115;-2;1.780744;4;22;129;1;Ozkirli & Pascucci (2023);Experiment 1;Orientation
2;125;126;1;1.155494;4;-8;130;1;Ozkirli & Pascucci (2023);Experiment 1;Orientation
2;98;101;3;1.447604;4;27;131;0;Ozkirli & Pascucci (2023);Experiment 1;Orientation
2;4;179;-5;1.13911;4;-86;132;0;Ozkirli & Pascucci (2023);Experiment 1;Orientation
2;64;58;-6;0.8394315;4;-60;133;1;Ozkirli & Pascucci (2023);Experiment 1;Orientation
2;11;3;-8;1.022967;4;53;134;1;Ozkirli & Pascucci (2023);Experiment 1;Orientation
2;176;163;-13;1.589609;4;15;135;0;Ozkirli & Pascucci (2023);Experiment 1;Orientation
2;24;7;-17;1.222197;4;-28;136;1;Ozkirli & Pascucci (2023);Experiment 1;Orientation
2;112;120;8;0.8645991;4;-88;137;0;Ozkirli & Pascucci (2023);Experiment 1;Orientation
2;161;161;0;0.9560423;4;-49;138;0;Ozkirli & Pascucci (2023);Experiment 1;Orientation
2;115;114;-1;1.222178;4;46;139;1;Ozkirli & Pascucci (2023);Experiment 1;Orientation
2;134;126;-8;1.256041;4;-19;140;0;Ozkirli & Pascucci (2023);Experiment 1;Orientation
2;90;93;3;1.980194;4;44;141;1;Ozkirli & Pascucci (2023);Experiment 1;Orientation
2;79;77;-2;1.205829;4;11;142;0;Ozkirli & Pascucci (2023);Experiment 1;Orientation
2;45;50;5;1.407263;4;34;143;0;Ozkirli & Pascucci (2023);Experiment 1;Orientation
2;48;46;-2;1.763926;4;-3;144;0;Ozkirli & Pascucci (2023);Experiment 1;Orientation
2;168;179;11;1.156598;4;60;145;1;Ozkirli & Pascucci (2023);Experiment 1;Orientation
2;67;67;0;0.5973077;4;-79;146;1;Ozkirli & Pascucci (2023);Experiment 1;Orientation
2;65;77;12;1.448333;4;2;147;1;Ozkirli & Pascucci (2023);Experiment 1;Orientation
2;65;67;2;2.289214;4;0;148;1;Ozkirli & Pascucci (2023);Experiment 1;Orientation
2;15;11;-4;0.9727281;4;50;149;1;Ozkirli & Pascucci (2023);Experiment 1;Orientation
2;19;20;1;0.4648313;4;-4;150;0;Ozkirli & Pascucci (2023);Experiment 1;Orientation
2;126;116;-10;1.022288;4;73;151;0;Ozkirli & Pascucci (2023);Experiment 1;Orientation
2;175;175;0;0.7224761;4;-49;152;0;Ozkirli & Pascucci (2023);Experiment 1;Orientation
2;51;70;19;2.231471;4;-56;153;1;Ozkirli & Pascucci (2023);Experiment 1;Orientation
2;68;74;6;0.9060968;4;-17;154;0;Ozkirli & Pascucci (2023);Experiment 1;Orientation
2;142;155;13;1.422245;4;-74;155;1;Ozkirli & Pascucci (2023);Experiment 1;Orientation
2;83;76;-7;1.338946;4;59;156;0;Ozkirli & Pascucci (2023);Experiment 1;Orientation
2;167;161;-6;1.048828;4;-84;157;0;Ozkirli & Pascucci (2023);Experiment 1;Orientation
2;33;31;-2;0.9973199;4;-46;158;1;Ozkirli & Pascucci (2023);Experiment 1;Orientation
2;63;74;11;1.097461;4;-30;159;1;Ozkirli & Pascucci (2023);Experiment 1;Orientation
2;49;56;7;1.79022;4;14;160;0;Ozkirli & Pascucci (2023);Experiment 1;Orientation
2;115;111;-4;0.9231815;5;-66;161;1;Ozkirli & Pascucci (2023);Experiment 1;Orientation
2;167;169;2;0.9975526;5;-52;162;0;Ozkirli & Pascucci (2023);Experiment 1;Orientation
2;113;104;-9;1.005609;5;54;163;1;Ozkirli & Pascucci (2023);Experiment 1;Orientation
2;155;3;28;1.248099;5;-42;164;1;Ozkirli & Pascucci (2023);Experiment 1;Orientation
2;85;94;9;1.689386;5;70;165;0;Ozkirli & Pascucci (2023);Experiment 1;Orientation
2;77;79;2;1.064186;5;8;166;1;Ozkirli & Pascucci (2023);Experiment 1;Orientation
2;16;26;10;0.6816302;5;61;167;0;Ozkirli & Pascucci (2023);Experiment 1;Orientation
2;137;132;-5;0.597345;5;59;168;1;Ozkirli & Pascucci (2023);Experiment 1;Orientation
2;42;46;4;1.605701;5;-85;169;0;Ozkirli & Pascucci (2023);Experiment 1;Orientation
2;116;112;-4;1.155845;5;-74;170;1;Ozkirli & Pascucci (2023);Experiment 1;Orientation
2;175;179;4;1.197984;5;-59;171;1;Ozkirli & Pascucci (2023);Experiment 1;Orientation
2;43;45;2;1.238916;5;-48;172;0;Ozkirli & Pascucci (2023);Experiment 1;Orientation
2;109;114;5;1.438804;5;-66;173;1;Ozkirli & Pascucci (2023);Experiment 1;Orientation
2;170;168;-2;0.6140443;5;-61;174;0;Ozkirli & Pascucci (2023);Experiment 1;Orientation
2;59;67;8;1.597566;5;-69;175;1;Ozkirli & Pascucci (2023);Experiment 1;Orientation
2;100;82;-18;0.7809078;5;-41;176;1;Ozkirli & Pascucci (2023);Experiment 1;Orientation
2;25;25;0;1.99751;5;75;177;1;Ozkirli & Pascucci (2023);Experiment 1;Orientation
2;99;111;12;0.9225575;5;-74;178;1;Ozkirli & Pascucci (2023);Experiment 1;Orientation
2;152;152;0;1.023486;5;-53;179;0;Ozkirli & Pascucci (2023);Experiment 1;Orientation
2;132;143;11;0.9313956;5;20;180;1;Ozkirli & Pascucci (2023);Experiment 1;Orientation
2;128;139;11;1.339332;5;4;181;0;Ozkirli & Pascucci (2023);Experiment 1;Orientation
2;44;43;-1;1.072481;5;84;182;1;Ozkirli & Pascucci (2023);Experiment 1;Orientation
2;7;16;9;1.388886;5;37;183;0;Ozkirli & Pascucci (2023);Experiment 1;Orientation
2;133;147;14;1.955445;5;54;184;0;Ozkirli & Pascucci (2023);Experiment 1;Orientation
2;98;103;5;0.7066164;5;35;185;1;Ozkirli & Pascucci (2023);Experiment 1;Orientation
2;175;179;4;1.455594;5;-77;186;0;Ozkirli & Pascucci (2023);Experiment 1;Orientation
2;88;90;2;2.230518;5;87;187;0;Ozkirli & Pascucci (2023);Experiment 1;Orientation
2;157;158;1;0.5817091;5;-69;188;1;Ozkirli & Pascucci (2023);Experiment 1;Orientation
2;41;32;-9;0.8226257;5;-64;189;0;Ozkirli & Pascucci (2023);Experiment 1;Orientation
2;90;81;-9;0.7975382;5;-49;190;1;Ozkirli & Pascucci (2023);Experiment 1;Orientation
2;40;57;17;1.131602;5;50;191;1;Ozkirli & Pascucci (2023);Experiment 1;Orientation
2;140;139;-1;0.8560283;5;80;192;0;Ozkirli & Pascucci (2023);Experiment 1;Orientation
2;125;125;0;0.9391529;5;15;193;1;Ozkirli & Pascucci (2023);Experiment 1;Orientation
2;28;22;-6;1.505814;5;-83;194;0;Ozkirli & Pascucci (2023);Experiment 1;Orientation
2;115;107;-8;0.6226561;5;-87;195;1;Ozkirli & Pascucci (2023);Experiment 1;Orientation
2;141;153;12;0.9142046;5;-26;196;0;Ozkirli & Pascucci (2023);Experiment 1;Orientation
2;130;135;5;0.7149301;5;11;197;0;Ozkirli & Pascucci (2023);Experiment 1;Orientation
2;158;164;6;0.9306145;5;-28;198;0;Ozkirli & Pascucci (2023);Experiment 1;Orientation
2;10;14;4;0.5973633;5;-32;199;1;Ozkirli & Pascucci (2023);Experiment 1;Orientation
2;22;15;-7;1.430734;5;-12;200;1;Ozkirli & Pascucci (2023);Experiment 1;Orientation
2;3;6;3;1.722492;6;19;201;1;Ozkirli & Pascucci (2023);Experiment 1;Orientation
2;148;162;14;0.7312096;6;35;202;1;Ozkirli & Pascucci (2023);Experiment 1;Orientation
2;43;68;25;0.5554887;6;-75;203;1;Ozkirli & Pascucci (2023);Experiment 1;Orientation
2;102;107;5;0.6142949;6;-59;204;0;Ozkirli & Pascucci (2023);Experiment 1;Orientation
2;172;160;-12;1.597431;6;-70;205;0;Ozkirli & Pascucci (2023);Experiment 1;Orientation
2;126;133;7;0.906103;6;46;206;1;Ozkirli & Pascucci (2023);Experiment 1;Orientation
2;175;178;3;1.430869;6;-49;207;1;Ozkirli & Pascucci (2023);Experiment 1;Orientation
2;161;161;0;1.206052;6;14;208;1;Ozkirli & Pascucci (2023);Experiment 1;Orientation
2;43;73;30;0.9141688;6;-62;209;1;Ozkirli & Pascucci (2023);Experiment 1;Orientation
2;121;131;10;0.7640601;6;-78;210;1;Ozkirli & Pascucci (2023);Experiment 1;Orientation
2;132;117;-15;0.6977631;6;-11;211;1;Ozkirli & Pascucci (2023);Experiment 1;Orientation
2;38;33;-5;0.6725904;6;-86;212;1;Ozkirli & Pascucci (2023);Experiment 1;Orientation
2;129;135;6;1.130921;6;89;213;1;Ozkirli & Pascucci (2023);Experiment 1;Orientation
2;63;62;-1;1.464289;6;66;214;0;Ozkirli & Pascucci (2023);Experiment 1;Orientation
2;65;64;-1;1.080768;6;-2;215;0;Ozkirli & Pascucci (2023);Experiment 1;Orientation
2;132;141;9;0.7556597;6;-67;216;0;Ozkirli & Pascucci (2023);Experiment 1;Orientation
2;123;130;7;0.9648715;6;9;217;0;Ozkirli & Pascucci (2023);Experiment 1;Orientation
2;134;121;-13;1.388928;6;-11;218;0;Ozkirli & Pascucci (2023);Experiment 1;Orientation
2;38;42;4;1.413999;6;-84;219;0;Ozkirli & Pascucci (2023);Experiment 1;Orientation
2;25;18;-7;0.7482242;6;13;220;1;Ozkirli & Pascucci (2023);Experiment 1;Orientation
2;79;86;7;1.049528;6;-54;221;1;Ozkirli & Pascucci (2023);Experiment 1;Orientation
2;145;154;9;1.164204;6;-66;222;0;Ozkirli & Pascucci (2023);Experiment 1;Orientation
2;109;89;-20;1.114418;6;36;223;1;Ozkirli & Pascucci (2023);Experiment 1;Orientation
2;49;68;19;0.80588;6;60;224;1;Ozkirli & Pascucci (2023);Experiment 1;Orientation
2;154;156;2;0.839129;6;75;225;0;Ozkirli & Pascucci (2023);Experiment 1;Orientation
2;92;87;-5;2.247624;6;62;226;0;Ozkirli & Pascucci (2023);Experiment 1;Orientation
2;93;87;-6;1.547481;6;-1;227;1;Ozkirli & Pascucci (2023);Experiment 1;Orientation
2;70;82;12;1.005624;6;23;228;0;Ozkirli & Pascucci (2023);Experiment 1;Orientation
2;97;90;-7;1.205955;6;-27;229;0;Ozkirli & Pascucci (2023);Experiment 1;Orientation
2;7;14;7;0.5809439;6;90;230;0;Ozkirli & Pascucci (2023);Experiment 1;Orientation
2;87;88;1;1.131018;6;-80;231;0;Ozkirli & Pascucci (2023);Experiment 1;Orientation
2;133;145;12;1.055827;6;-46;232;0;Ozkirli & Pascucci (2023);Experiment 1;Orientation
2;161;164;3;0.8476051;6;-28;233;0;Ozkirli & Pascucci (2023);Experiment 1;Orientation
2;106;111;5;0.9058583;6;55;234;0;Ozkirli & Pascucci (2023);Experiment 1;Orientation
2;161;167;6;0.8891791;6;-55;235;0;Ozkirli & Pascucci (2023);Experiment 1;Orientation
2;105;111;6;0.7647352;6;56;236;0;Ozkirli & Pascucci (2023);Experiment 1;Orientation
2;13;10;-3;0.7473177;6;-88;237;1;Ozkirli & Pascucci (2023);Experiment 1;Orientation
2;124;127;3;0.8309654;6;69;238;0;Ozkirli & Pascucci (2023);Experiment 1;Orientation
2;28;24;-4;1.589293;6;-84;239;0;Ozkirli & Pascucci (2023);Experiment 1;Orientation
2;172;171;-1;1.314099;6;36;240;1;Ozkirli & Pascucci (2023);Experiment 1;Orientation
2;150;162;12;0.9643187;7;22;241;1;Ozkirli & Pascucci (2023);Experiment 1;Orientation
2;30;35;5;0.8643286;7;-60;242;1;Ozkirli & Pascucci (2023);Experiment 1;Orientation
2;94;89;-5;0.8059774;7;-64;243;1;Ozkirli & Pascucci (2023);Experiment 1;Orientation
2;116;153;37;1.406509;7;-22;244;1;Ozkirli & Pascucci (2023);Experiment 1;Orientation
2;48;52;4;1.24748;7;68;245;0;Ozkirli & Pascucci (2023);Experiment 1;Orientation
2;157;153;-4;0.7894074;7;71;246;1;Ozkirli & Pascucci (2023);Experiment 1;Orientation
2;113;105;-8;0.9725259;7;44;247;1;Ozkirli & Pascucci (2023);Experiment 1;Orientation
2;116;104;-12;1.214924;7;-3;248;1;Ozkirli & Pascucci (2023);Experiment 1;Orientation
2;109;109;0;1.139289;7;7;249;0;Ozkirli & Pascucci (2023);Experiment 1;Orientation
2;97;109;12;1.589136;7;12;250;1;Ozkirli & Pascucci (2023);Experiment 1;Orientation
2;27;18;-9;0.6389161;7;70;251;0;Ozkirli & Pascucci (2023);Experiment 1;Orientation
2;156;158;2;1.006088;7;51;252;0;Ozkirli & Pascucci (2023);Experiment 1;Orientation
2;134;135;1;1.122576;7;22;253;0;Ozkirli & Pascucci (2023);Experiment 1;Orientation
2;98;103;5;1.372085;7;36;254;0;Ozkirli & Pascucci (2023);Experiment 1;Orientation
2;56;78;22;0.9642228;7;42;255;0;Ozkirli & Pascucci (2023);Experiment 1;Orientation
2;70;78;8;0.8233206;7;-14;256;0;Ozkirli & Pascucci (2023);Experiment 1;Orientation
2;124;145;21;0.763922;7;-54;257;0;Ozkirli & Pascucci (2023);Experiment 1;Orientation
2;24;25;1;1.722156;7;-80;258;1;Ozkirli & Pascucci (2023);Experiment 1;Orientation
2;133;140;7;0.9472077;7;71;259;0;Ozkirli & Pascucci (2023);Experiment 1;Orientation
2;156;157;1;0.9477095;7;-23;260;1;Ozkirli & Pascucci (2023);Experiment 1;Orientation
2;12;26;14;0.7060044;7;-36;261;0;Ozkirli & Pascucci (2023);Experiment 1;Orientation
2;8;12;4;0.9643472;7;4;262;0;Ozkirli & Pascucci (2023);Experiment 1;Orientation
2;106;113;7;0.9475555;7;82;263;1;Ozkirli & Pascucci (2023);Experiment 1;Orientation
2;85;86;1;0.6807892;7;21;264;1;Ozkirli & Pascucci (2023);Experiment 1;Orientation
2;60;73;13;1.022649;7;25;265;0;Ozkirli & Pascucci (2023);Experiment 1;Orientation
2;101;94;-7;0.8476754;7;-41;266;1;Ozkirli & Pascucci (2023);Experiment 1;Orientation
2;2;9;7;0.889003;7;-81;267;0;Ozkirli & Pascucci (2023);Experiment 1;Orientation
2;7;19;12;0.4726321;7;-5;268;0;Ozkirli & Pascucci (2023);Experiment 1;Orientation
2;41;47;6;1.981476;7;-34;269;0;Ozkirli & Pascucci (2023);Experiment 1;Orientation
2;89;94;5;0.7310261;7;-48;270;1;Ozkirli & Pascucci (2023);Experiment 1;Orientation
2;33;35;2;0.7153889;7;56;271;1;Ozkirli & Pascucci (2023);Experiment 1;Orientation
2;42;50;8;1.097442;7;-9;272;0;Ozkirli & Pascucci (2023);Experiment 1;Orientation
2;19;16;-3;2.030442;7;23;273;0;Ozkirli & Pascucci (2023);Experiment 1;Orientation
2;140;146;6;0.9389786;7;59;274;1;Ozkirli & Pascucci (2023);Experiment 1;Orientation
2;54;61;7;0.8118376;7;86;275;0;Ozkirli & Pascucci (2023);Experiment 1;Orientation
2;15;176;-19;0.6805553;7;39;276;1;Ozkirli & Pascucci (2023);Experiment 1;Orientation
2;4;157;-27;0.606027;7;11;277;1;Ozkirli & Pascucci (2023);Experiment 1;Orientation
2;127;139;12;0.797861;7;57;278;1;Ozkirli & Pascucci (2023);Experiment 1;Orientation
2;177;1;4;1.08086;7;-50;279;1;Ozkirli & Pascucci (2023);Experiment 1;Orientation
2;124;119;-5;0.8476445;7;53;280;1;Ozkirli & Pascucci (2023);Experiment 1;Orientation
2;53;61;8;0.4971171;8;71;281;1;Ozkirli & Pascucci (2023);Experiment 1;Orientation
2;90;75;-15;0.7054931;8;-37;282;0;Ozkirli & Pascucci (2023);Experiment 1;Orientation
2;114;105;-9;0.9559325;8;-24;283;0;Ozkirli & Pascucci (2023);Experiment 1;Orientation
2;24;134;-70;1.147638;8;90;284;1;Ozkirli & Pascucci (2023);Experiment 1;Orientation
2;87;90;3;0.572546;8;-63;285;1;Ozkirli & Pascucci (2023);Experiment 1;Orientation
2;123;134;11;0.8808097;8;-36;286;1;Ozkirli & Pascucci (2023);Experiment 1;Orientation
2;52;54;2;0.6393244;8;71;287;1;Ozkirli & Pascucci (2023);Experiment 1;Orientation
2;77;80;3;0.581132;8;-25;288;1;Ozkirli & Pascucci (2023);Experiment 1;Orientation
2;167;178;11;0.5311341;8;-90;289;0;Ozkirli & Pascucci (2023);Experiment 1;Orientation
2;69;71;2;0.7223942;8;-82;290;0;Ozkirli & Pascucci (2023);Experiment 1;Orientation
2;92;85;-7;0.9809102;8;-23;291;1;Ozkirli & Pascucci (2023);Experiment 1;Orientation
2;119;120;1;1.105899;8;-27;292;0;Ozkirli & Pascucci (2023);Experiment 1;Orientation
2;140;123;-17;1.5479;8;-21;293;1;Ozkirli & Pascucci (2023);Experiment 1;Orientation
2;93;83;-10;0.9557246;8;47;294;1;Ozkirli & Pascucci (2023);Experiment 1;Orientation
2;142;134;-8;0.7058444;8;-49;295;1;Ozkirli & Pascucci (2023);Experiment 1;Orientation
2;39;59;20;1.447651;8;-77;296;0;Ozkirli & Pascucci (2023);Experiment 1;Orientation
2;179;175;-4;1.305959;8;40;297;1;Ozkirli & Pascucci (2023);Experiment 1;Orientation
2;43;57;14;0.6557829;8;-44;298;0;Ozkirli & Pascucci (2023);Experiment 1;Orientation
2;100;100;0;0.7139447;8;-57;299;1;Ozkirli & Pascucci (2023);Experiment 1;Orientation
2;33;38;5;0.5810866;8;67;300;1;Ozkirli & Pascucci (2023);Experiment 1;Orientation
2;20;17;-3;1.022583;8;13;301;1;Ozkirli & Pascucci (2023);Experiment 1;Orientation
2;123;120;-3;1.105595;8;77;302;0;Ozkirli & Pascucci (2023);Experiment 1;Orientation
2;151;153;2;0.4566251;8;-28;303;0;Ozkirli & Pascucci (2023);Experiment 1;Orientation
2;99;100;1;0.9055785;8;52;304;0;Ozkirli & Pascucci (2023);Experiment 1;Orientation
2;5;19;14;1.572216;8;-86;305;1;Ozkirli & Pascucci (2023);Experiment 1;Orientation
2;76;79;3;1.097492;8;-71;306;1;Ozkirli & Pascucci (2023);Experiment 1;Orientation
2;156;134;-22;1.305981;8;-80;307;1;Ozkirli & Pascucci (2023);Experiment 1;Orientation
2;73;68;-5;0.6399056;8;83;308;0;Ozkirli & Pascucci (2023);Experiment 1;Orientation
2;125;128;3;1.31403;8;-52;309;0;Ozkirli & Pascucci (2023);Experiment 1;Orientation
2;96;104;8;1.014235;8;29;310;0;Ozkirli & Pascucci (2023);Experiment 1;Orientation
2;117;72;-45;0.8309417;8;-21;311;0;Ozkirli & Pascucci (2023);Experiment 1;Orientation
2;85;91;6;0.66442;8;32;312;0;Ozkirli & Pascucci (2023);Experiment 1;Orientation
2;53;55;2;0.7485374;8;32;313;1;Ozkirli & Pascucci (2023);Experiment 1;Orientation
2;171;175;4;3.688558;8;62;314;1;Ozkirli & Pascucci (2023);Experiment 1;Orientation
2;71;96;25;0.9975606;8;-80;315;1;Ozkirli & Pascucci (2023);Experiment 1;Orientation
2;77;76;-1;1.347561;8;-6;316;0;Ozkirli & Pascucci (2023);Experiment 1;Orientation
2;93;91;-2;1.381;8;-16;317;0;Ozkirli & Pascucci (2023);Experiment 1;Orientation
2;163;164;1;0.5472919;8;-70;318;1;Ozkirli & Pascucci (2023);Experiment 1;Orientation
2;74;76;2;1.089389;8;89;319;0;Ozkirli & Pascucci (2023);Experiment 1;Orientation
2;129;118;-11;0.8806929;8;-55;320;1;Ozkirli & Pascucci (2023);Experiment 1;Orientation
2;130;140;10;0.8893334;9;-1;321;0;Ozkirli & Pascucci (2023);Experiment 1;Orientation
2;119;123;4;0.8901341;9;11;322;1;Ozkirli & Pascucci (2023);Experiment 1;Orientation
2;114;127;13;1.014373;9;5;323;1;Ozkirli & Pascucci (2023);Experiment 1;Orientation
2;44;30;-14;1.422538;9;70;324;0;Ozkirli & Pascucci (2023);Experiment 1;Orientation
2;5;4;-1;0.9309327;9;39;325;1;Ozkirli & Pascucci (2023);Experiment 1;Orientation
2;90;101;11;1.08914;9;-85;326;1;Ozkirli & Pascucci (2023);Experiment 1;Orientation
2;102;103;1;1.147546;9;-12;327;1;Ozkirli & Pascucci (2023);Experiment 1;Orientation
2;79;76;-3;0.8058556;9;23;328;1;Ozkirli & Pascucci (2023);Experiment 1;Orientation
2;46;57;11;1.064176;9;33;329;0;Ozkirli & Pascucci (2023);Experiment 1;Orientation
2;43;47;4;1.197799;9;3;330;1;Ozkirli & Pascucci (2023);Experiment 1;Orientation
2;122;107;-15;0.9893155;9;-79;331;1;Ozkirli & Pascucci (2023);Experiment 1;Orientation
2;151;151;0;1.081008;9;-29;332;0;Ozkirli & Pascucci (2023);Experiment 1;Orientation
2;157;156;-1;1.0056;9;-6;333;0;Ozkirli & Pascucci (2023);Experiment 1;Orientation
2;97;107;10;1.630965;9;60;334;0;Ozkirli & Pascucci (2023);Experiment 1;Orientation
2;84;77;-7;1.214514;9;13;335;0;Ozkirli & Pascucci (2023);Experiment 1;Orientation
2;79;68;-11;0.7568738;9;5;336;1;Ozkirli & Pascucci (2023);Experiment 1;Orientation
2;65;68;3;0.7479577;9;14;337;1;Ozkirli & Pascucci (2023);Experiment 1;Orientation
2;18;16;-2;0.6308838;9;47;338;1;Ozkirli & Pascucci (2023);Experiment 1;Orientation
2;122;142;20;0.5730339;9;76;339;0;Ozkirli & Pascucci (2023);Experiment 1;Orientation
2;138;142;4;0.8898348;9;-16;340;0;Ozkirli & Pascucci (2023);Experiment 1;Orientation
2;15;24;9;1.206494;9;-57;341;0;Ozkirli & Pascucci (2023);Experiment 1;Orientation
2;100;113;13;0.7650637;9;-85;342;1;Ozkirli & Pascucci (2023);Experiment 1;Orientation
2;69;68;-1;0.6809546;9;31;343;1;Ozkirli & Pascucci (2023);Experiment 1;Orientation
2;13;4;-9;0.8472623;9;56;344;1;Ozkirli & Pascucci (2023);Experiment 1;Orientation
2;167;168;1;0.9566563;9;26;345;0;Ozkirli & Pascucci (2023);Experiment 1;Orientation
2;7;39;32;0.8151998;9;-20;346;1;Ozkirli & Pascucci (2023);Experiment 1;Orientation
2;104;104;0;0.7641908;9;83;347;0;Ozkirli & Pascucci (2023);Experiment 1;Orientation
2;58;78;20;1.022494;9;46;348;1;Ozkirli & Pascucci (2023);Experiment 1;Orientation
2;63;73;10;1.1892;9;-5;349;1;Ozkirli & Pascucci (2023);Experiment 1;Orientation
2;150;164;14;1.622442;9;-87;350;0;Ozkirli & Pascucci (2023);Experiment 1;Orientation
2;180;168;-12;1.614206;9;-30;351;1;Ozkirli & Pascucci (2023);Experiment 1;Orientation
2;17;14;-3;1.922645;9;-17;352;1;Ozkirli & Pascucci (2023);Experiment 1;Orientation
2;94;66;-28;1.080659;9;-77;353;1;Ozkirli & Pascucci (2023);Experiment 1;Orientation
2;27;25;-2;0.9390179;9;67;354;0;Ozkirli & Pascucci (2023);Experiment 1;Orientation
2;92;100;8;1.488911;9;-65;355;1;Ozkirli & Pascucci (2023);Experiment 1;Orientation
2;15;43;28;0.5728965;9;77;356;1;Ozkirli & Pascucci (2023);Experiment 1;Orientation
2;105;111;6;0.9392468;9;-90;357;0;Ozkirli & Pascucci (2023);Experiment 1;Orientation
2;151;148;-3;1.156002;9;-46;358;1;Ozkirli & Pascucci (2023);Experiment 1;Orientation
2;110;108;-2;0.9477744;9;41;359;0;Ozkirli & Pascucci (2023);Experiment 1;Orientation
2;41;56;15;0.9806792;9;69;360;1;Ozkirli & Pascucci (2023);Experiment 1;Orientation
2;103;111;8;0.8473179;10;-62;361;1;Ozkirli & Pascucci (2023);Experiment 1;Orientation
2;51;65;14;0.7225487;10;52;362;0;Ozkirli & Pascucci (2023);Experiment 1;Orientation
2;88;99;11;0.9973113;10;-37;363;1;Ozkirli & Pascucci (2023);Experiment 1;Orientation
2;32;146;-66;0.8892555;10;56;364;1;Ozkirli & Pascucci (2023);Experiment 1;Orientation
2;40;43;3;0.5892811;10;-8;365;1;Ozkirli & Pascucci (2023);Experiment 1;Orientation
2;100;118;18;0.9971171;10;-60;366;1;Ozkirli & Pascucci (2023);Experiment 1;Orientation
2;99;104;5;1.030529;10;1;367;0;Ozkirli & Pascucci (2023);Experiment 1;Orientation
2;9;176;-13;0.7725085;10;90;368;1;Ozkirli & Pascucci (2023);Experiment 1;Orientation
2;131;127;-4;0.9641139;10;58;369;0;Ozkirli & Pascucci (2023);Experiment 1;Orientation
2;17;8;-9;1.814226;10;-66;370;0;Ozkirli & Pascucci (2023);Experiment 1;Orientation
2;137;157;20;1.272771;10;60;371;1;Ozkirli & Pascucci (2023);Experiment 1;Orientation
2;70;71;1;0.8976913;10;67;372;1;Ozkirli & Pascucci (2023);Experiment 1;Orientation
2;16;18;2;0.8643167;10;54;373;0;Ozkirli & Pascucci (2023);Experiment 1;Orientation
2;39;43;4;0.914203;10;-23;374;1;Ozkirli & Pascucci (2023);Experiment 1;Orientation
2;92;91;-1;0.8058821;10;-53;375;0;Ozkirli & Pascucci (2023);Experiment 1;Orientation
2;23;10;-13;1.289125;10;69;376;1;Ozkirli & Pascucci (2023);Experiment 1;Orientation
2;174;164;-10;1.289296;10;29;377;0;Ozkirli & Pascucci (2023);Experiment 1;Orientation
2;165;167;2;1.297593;10;9;378;0;Ozkirli & Pascucci (2023);Experiment 1;Orientation
2;42;51;9;2.788958;10;-57;379;0;Ozkirli & Pascucci (2023);Experiment 1;Orientation
2;179;179;0;0.7309871;10;43;380;1;Ozkirli & Pascucci (2023);Experiment 1;Orientation
2;109;132;23;0.6309398;10;70;381;1;Ozkirli & Pascucci (2023);Experiment 1;Orientation
2;6;9;3;0.514813;10;-77;382;0;Ozkirli & Pascucci (2023);Experiment 1;Orientation
2;60;62;2;2.597392;10;-54;383;0;Ozkirli & Pascucci (2023);Experiment 1;Orientation
2;99;102;3;0.9559084;10;-39;384;0;Ozkirli & Pascucci (2023);Experiment 1;Orientation
2;122;113;-9;0.5727695;10;-23;385;0;Ozkirli & Pascucci (2023);Experiment 1;Orientation
2;10;16;6;0.7141775;10;-68;386;1;Ozkirli & Pascucci (2023);Experiment 1;Orientation
2;36;33;-3;1.189249;10;-26;387;0;Ozkirli & Pascucci (2023);Experiment 1;Orientation
2;17;20;3;1.530788;10;19;388;1;Ozkirli & Pascucci (2023);Experiment 1;Orientation
2;165;159;-6;1.014602;10;32;389;0;Ozkirli & Pascucci (2023);Experiment 1;Orientation
2;114;107;-7;1.105813;10;51;390;0;Ozkirli & Pascucci (2023);Experiment 1;Orientation
2;119;105;-14;1.114836;10;-5;391;1;Ozkirli & Pascucci (2023);Experiment 1;Orientation
2;127;121;-6;1.348212;10;-8;392;0;Ozkirli & Pascucci (2023);Experiment 1;Orientation
2;24;29;5;2.580408;10;-77;393;0;Ozkirli & Pascucci (2023);Experiment 1;Orientation
2;52;53;1;1.147556;10;-28;394;0;Ozkirli & Pascucci (2023);Experiment 1;Orientation
2;71;66;-5;0.772487;10;-19;395;1;Ozkirli & Pascucci (2023);Experiment 1;Orientation
2;41;41;0;1.230615;10;30;396;1;Ozkirli & Pascucci (2023);Experiment 1;Orientation
2;114;124;10;0.572598;10;-73;397;1;Ozkirli & Pascucci (2023);Experiment 1;Orientation
2;90;74;-16;1.097496;10;24;398;1;Ozkirli & Pascucci (2023);Experiment 1;Orientation
2;153;163;10;1.080478;10;-63;399;1;Ozkirli & Pascucci (2023);Experiment 1;Orientation
3;88;86;-2;0.847664699999768;1;NaN;1;0;Ozkirli & Pascucci (2023);Experiment 1;Orientation
3;39;27;-12;1.63075730000037;1;49;2;1;Ozkirli & Pascucci (2023);Experiment 1;Orientation
3;13;14;1;1.63132029999997;1;26;3;0;Ozkirli & Pascucci (2023);Experiment 1;Orientation
3;8;13;5;1.08985469999971;1;5;4;0;Ozkirli & Pascucci (2023);Experiment 1;Orientation
3;175;173;-2;2.17237180000029;1;13;5;0;Ozkirli & Pascucci (2023);Experiment 1;Orientation
3;121;103;-18;1.51469669999915;1;54;6;1;Ozkirli & Pascucci (2023);Experiment 1;Orientation
3;138;101;-37;0.997392399999626;1;-17;7;1;Ozkirli & Pascucci (2023);Experiment 1;Orientation
3;115;105;-10;1.14752640000006;1;23;8;0;Ozkirli & Pascucci (2023);Experiment 1;Orientation
3;78;74;-4;0.698221200000262;1;37;9;0;Ozkirli & Pascucci (2023);Experiment 1;Orientation
3;159;170;11;0.873373399999764;1;-81;10;0;Ozkirli & Pascucci (2023);Experiment 1;Orientation
3;3;5;2;0.67323099999976;1;-24;11;0;Ozkirli & Pascucci (2023);Experiment 1;Orientation
3;41;60;19;0.564949099999467;1;-38;12;0;Ozkirli & Pascucci (2023);Experiment 1;Orientation
3;52;66;14;1.23970590000044;1;-11;13;0;Ozkirli & Pascucci (2023);Experiment 1;Orientation
3;114;105;-9;1.23092600000018;1;-62;14;0;Ozkirli & Pascucci (2023);Experiment 1;Orientation
3;103;78;-25;0.939174300000559;1;11;15;1;Ozkirli & Pascucci (2023);Experiment 1;Orientation
3;15;10;-5;0.997428200000286;1;88;16;0;Ozkirli & Pascucci (2023);Experiment 1;Orientation
3;126;103;-23;0.939597300000059;1;69;17;1;Ozkirli & Pascucci (2023);Experiment 1;Orientation
3;153;162;9;0.98155080000015;1;-27;18;0;Ozkirli & Pascucci (2023);Experiment 1;Orientation
3;15;21;6;1.1893;1;-42;19;0;Ozkirli & Pascucci (2023);Experiment 1;Orientation
3;59;78;19;0.714253899999676;1;-44;20;0;Ozkirli & Pascucci (2023);Experiment 1;Orientation
3;88;81;-7;1.06418750000012;1;-29;21;1;Ozkirli & Pascucci (2023);Experiment 1;Orientation
3;91;91;0;1.02300130000003;1;-3;22;1;Ozkirli & Pascucci (2023);Experiment 1;Orientation
3;50;62;12;0.922664400000031;1;41;23;1;Ozkirli & Pascucci (2023);Experiment 1;Orientation
3;10;8;-2;1.01390149999952;1;40;24;1;Ozkirli & Pascucci (2023);Experiment 1;Orientation
3;121;107;-14;0.922556200000145;1;69;25;0;Ozkirli & Pascucci (2023);Experiment 1;Orientation
3;146;153;7;1.12225740000031;1;-25;26;1;Ozkirli & Pascucci (2023);Experiment 1;Orientation
3;8;15;7;0.989176799999768;1;-42;27;0;Ozkirli & Pascucci (2023);Experiment 1;Orientation
3;163;168;5;1.00591600000007;1;25;28;0;Ozkirli & Pascucci (2023);Experiment 1;Orientation
3;20;19;-1;2.09711800000059;1;-37;29;1;Ozkirli & Pascucci (2023);Experiment 1;Orientation
3;12;15;3;0.955880800000159;1;8;30;1;Ozkirli & Pascucci (2023);Experiment 1;Orientation
3;105;97;-8;1.0558142000009;1;87;31;0;Ozkirli & Pascucci (2023);Experiment 1;Orientation
3;107;97;-10;1.05625760000021;1;-2;32;0;Ozkirli & Pascucci (2023);Experiment 1;Orientation
3;9;14;5;1.0974656999997;1;-82;33;0;Ozkirli & Pascucci (2023);Experiment 1;Orientation
3;61;79;18;0.981168100000104;1;-52;34;1;Ozkirli & Pascucci (2023);Experiment 1;Orientation
3;69;80;11;0.980929899999865;1;-8;35;1;Ozkirli & Pascucci (2023);Experiment 1;Orientation
3;119;95;-24;0.814293599999473;1;-50;36;1;Ozkirli & Pascucci (2023);Experiment 1;Orientation
3;160;172;12;1.23926360000041;1;-41;37;0;Ozkirli & Pascucci (2023);Experiment 1;Orientation
3;159;165;6;1.04830750000019;1;1;38;0;Ozkirli & Pascucci (2023);Experiment 1;Orientation
3;130;108;-22;1.455645;1;29;39;0;Ozkirli & Pascucci (2023);Experiment 1;Orientation
3;6;15;9;0.956283399999847;1;-56;40;1;Ozkirli & Pascucci (2023);Experiment 1;Orientation
3;42;74;32;1.62256369999977;2;-36;41;0;Ozkirli & Pascucci (2023);Experiment 1;Orientation
3;65;68;3;1.42252319999989;2;-23;42;1;Ozkirli & Pascucci (2023);Experiment 1;Orientation
3;99;103;4;1.39736509999966;2;-34;43;1;Ozkirli & Pascucci (2023);Experiment 1;Orientation
3;120;105;-15;1.03092819999983;2;-21;44;0;Ozkirli & Pascucci (2023);Experiment 1;Orientation
3;136;113;-23;1.33923959999993;2;-16;45;1;Ozkirli & Pascucci (2023);Experiment 1;Orientation
3;11;177;-14;0.772752599999876;2;-55;46;1;Ozkirli & Pascucci (2023);Experiment 1;Orientation
3;88;82;-6;0.922220700000253;2;-77;47;1;Ozkirli & Pascucci (2023);Experiment 1;Orientation
3;39;62;23;1.12291920000007;2;49;48;0;Ozkirli & Pascucci (2023);Experiment 1;Orientation
3;119;112;-7;0.898623200000657;2;-80;49;0;Ozkirli & Pascucci (2023);Experiment 1;Orientation
3;89;79;-10;1.04757079999945;2;30;50;1;Ozkirli & Pascucci (2023);Experiment 1;Orientation
3;133;149;16;1.18924680000055;2;-44;51;0;Ozkirli & Pascucci (2023);Experiment 1;Orientation
3;103;102;-1;0.672289199999796;2;30;52;0;Ozkirli & Pascucci (2023);Experiment 1;Orientation
3;84;74;-10;0.739952299999459;2;19;53;0;Ozkirli & Pascucci (2023);Experiment 1;Orientation
3;63;70;7;1.21449250000023;2;21;54;0;Ozkirli & Pascucci (2023);Experiment 1;Orientation
3;166;169;3;0.814095400000042;2;77;55;0;Ozkirli & Pascucci (2023);Experiment 1;Orientation
3;152;158;6;0.806013099999291;2;14;56;0;Ozkirli & Pascucci (2023);Experiment 1;Orientation
3;2;19;17;1.01419220000025;2;-30;57;1;Ozkirli & Pascucci (2023);Experiment 1;Orientation
3;157;165;8;1.20615450000059;2;25;58;1;Ozkirli & Pascucci (2023);Experiment 1;Orientation
3;9;27;18;1.28912630000013;2;-32;59;0;Ozkirli & Pascucci (2023);Experiment 1;Orientation
3;119;131;12;0.66482889999952;2;70;60;0;Ozkirli & Pascucci (2023);Experiment 1;Orientation
3;133;137;4;1.23918670000057;2;-14;61;0;Ozkirli & Pascucci (2023);Experiment 1;Orientation
3;119;147;28;1.09781229999953;2;14;62;0;Ozkirli & Pascucci (2023);Experiment 1;Orientation
3;122;116;-6;0.714903899999626;2;-3;63;1;Ozkirli & Pascucci (2023);Experiment 1;Orientation
3;89;86;-3;1.17291169999953;2;33;64;0;Ozkirli & Pascucci (2023);Experiment 1;Orientation
3;30;30;0;1.39781760000005;2;59;65;0;Ozkirli & Pascucci (2023);Experiment 1;Orientation
3;2;4;2;1.27285209999991;2;28;66;1;Ozkirli & Pascucci (2023);Experiment 1;Orientation
3;27;21;-6;0.806084499999997;2;-25;67;1;Ozkirli & Pascucci (2023);Experiment 1;Orientation
3;147;132;-15;0.822986800000763;2;60;68;1;Ozkirli & Pascucci (2023);Experiment 1;Orientation
3;167;170;3;1.20603399999982;2;-20;69;0;Ozkirli & Pascucci (2023);Experiment 1;Orientation
3;128;112;-16;0.922856400000455;2;39;70;1;Ozkirli & Pascucci (2023);Experiment 1;Orientation
3;39;60;21;1.48920420000013;2;89;71;0;Ozkirli & Pascucci (2023);Experiment 1;Orientation
3;25;22;-3;0.823166799999854;2;14;72;1;Ozkirli & Pascucci (2023);Experiment 1;Orientation
3;83;89;6;0.905799699999989;2;-58;73;1;Ozkirli & Pascucci (2023);Experiment 1;Orientation
3;60;66;6;0.980955600000016;2;23;74;0;Ozkirli & Pascucci (2023);Experiment 1;Orientation
3;9;18;9;1.42255039999964;2;51;75;1;Ozkirli & Pascucci (2023);Experiment 1;Orientation
3;93;87;-6;1.17272540000067;2;-84;76;0;Ozkirli & Pascucci (2023);Experiment 1;Orientation
3;47;57;10;0.747722500000236;2;46;77;0;Ozkirli & Pascucci (2023);Experiment 1;Orientation
3;126;122;-4;1.00583449999976;2;-79;78;0;Ozkirli & Pascucci (2023);Experiment 1;Orientation
3;99;101;2;0.914096100000279;2;27;79;1;Ozkirli & Pascucci (2023);Experiment 1;Orientation
3;154;178;24;1.19775699999991;2;-55;80;0;Ozkirli & Pascucci (2023);Experiment 1;Orientation
3;10;14;4;1.33915739999975;3;-36;81;1;Ozkirli & Pascucci (2023);Experiment 1;Orientation
3;96;87;-9;1.23081110000021;3;-86;82;1;Ozkirli & Pascucci (2023);Experiment 1;Orientation
3;26;2;-24;1.13897309999993;3;70;83;0;Ozkirli & Pascucci (2023);Experiment 1;Orientation
3;131;116;-15;0.938901800000167;3;75;84;0;Ozkirli & Pascucci (2023);Experiment 1;Orientation
3;52;56;4;0.738881400000537;3;79;85;0;Ozkirli & Pascucci (2023);Experiment 1;Orientation
3;143;137;-6;1.17261490000055;3;89;86;1;Ozkirli & Pascucci (2023);Experiment 1;Orientation
3;89;86;-3;1.04811049999989;3;54;87;1;Ozkirli & Pascucci (2023);Experiment 1;Orientation
3;88;86;-2;0.589562899999692;3;1;88;0;Ozkirli & Pascucci (2023);Experiment 1;Orientation
3;68;81;13;0.998133300000518;3;20;89;1;Ozkirli & Pascucci (2023);Experiment 1;Orientation
3;24;7;-17;0.964201899999352;3;44;90;1;Ozkirli & Pascucci (2023);Experiment 1;Orientation
3;177;15;18;0.931488700000045;3;27;91;0;Ozkirli & Pascucci (2023);Experiment 1;Orientation
3;165;161;-4;1.10581139999977;3;12;92;1;Ozkirli & Pascucci (2023);Experiment 1;Orientation
3;127;118;-9;2.52263949999997;3;38;93;0;Ozkirli & Pascucci (2023);Experiment 1;Orientation
3;57;73;16;0.689341100000092;3;70;94;1;Ozkirli & Pascucci (2023);Experiment 1;Orientation
3;11;10;-1;1.16426389999924;3;46;95;1;Ozkirli & Pascucci (2023);Experiment 1;Orientation
3;150;159;9;0.697531400000116;3;41;96;1;Ozkirli & Pascucci (2023);Experiment 1;Orientation
3;42;19;-23;0.739332099999956;3;-72;97;1;Ozkirli & Pascucci (2023);Experiment 1;Orientation
3;170;158;-12;0.990452499999265;3;52;98;1;Ozkirli & Pascucci (2023);Experiment 1;Orientation
3;35;19;-16;1.77215660000002;3;-45;99;1;Ozkirli & Pascucci (2023);Experiment 1;Orientation
3;149;139;-10;1.20587839999916;3;66;100;0;Ozkirli & Pascucci (2023);Experiment 1;Orientation
3;153;154;1;1.08116539999992;3;-4;101;0;Ozkirli & Pascucci (2023);Experiment 1;Orientation
3;89;75;-14;0.898239500000273;3;64;102;1;Ozkirli & Pascucci (2023);Experiment 1;Orientation
3;61;75;14;0.872622800001409;3;28;103;1;Ozkirli & Pascucci (2023);Experiment 1;Orientation
3;75;72;-3;0.939094800000021;3;-14;104;1;Ozkirli & Pascucci (2023);Experiment 1;Orientation
3;33;40;7;1.3894694999999;3;42;105;0;Ozkirli & Pascucci (2023);Experiment 1;Orientation
3;148;150;2;1.16430260000016;3;65;106;0;Ozkirli & Pascucci (2023);Experiment 1;Orientation
3;119;108;-11;0.880820700000186;3;29;107;1;Ozkirli & Pascucci (2023);Experiment 1;Orientation
3;68;79;11;0.44765919999918;3;51;108;1;Ozkirli & Pascucci (2023);Experiment 1;Orientation
3;118;111;-7;1.0062125000004;3;-50;109;1;Ozkirli & Pascucci (2023);Experiment 1;Orientation
3;37;47;10;0.639162399998895;3;81;110;1;Ozkirli & Pascucci (2023);Experiment 1;Orientation
3;145;139;-6;1.27272950000042;3;72;111;1;Ozkirli & Pascucci (2023);Experiment 1;Orientation
3;69;63;-6;0.75654779999968;3;76;112;0;Ozkirli & Pascucci (2023);Experiment 1;Orientation
3;138;137;-1;0.564222499999232;3;-69;113;0;Ozkirli & Pascucci (2023);Experiment 1;Orientation
3;89;83;-6;0.872870499999408;3;49;114;0;Ozkirli & Pascucci (2023);Experiment 1;Orientation
3;140;140;0;1.03052070000012;3;-51;115;0;Ozkirli & Pascucci (2023);Experiment 1;Orientation
3;29;18;-11;0.881563199998709;3;-69;116;0;Ozkirli & Pascucci (2023);Experiment 1;Orientation
3;13;22;9;1.13968460000069;3;16;117;1;Ozkirli & Pascucci (2023);Experiment 1;Orientation
3;158;168;10;0.606573900000512;3;35;118;1;Ozkirli & Pascucci (2023);Experiment 1;Orientation
3;58;49;-9;0.930939900001249;3;-80;119;0;Ozkirli & Pascucci (2023);Experiment 1;Orientation
3;26;18;-8;1.18111169999975;3;32;120;1;Ozkirli & Pascucci (2023);Experiment 1;Orientation
3;146;139;-7;0.639921099998901;4;60;121;1;Ozkirli & Pascucci (2023);Experiment 1;Orientation
3;116;112;-4;0.99761319999925;4;30;122;0;Ozkirli & Pascucci (2023);Experiment 1;Orientation
3;103;106;3;0.948145500000464;4;13;123;1;Ozkirli & Pascucci (2023);Experiment 1;Orientation
3;35;19;-16;1.58095280000089;4;68;124;1;Ozkirli & Pascucci (2023);Experiment 1;Orientation
3;106;106;0;1.12280419999843;4;-71;125;0;Ozkirli & Pascucci (2023);Experiment 1;Orientation
3;120;106;-14;0.981317100000524;4;-14;126;0;Ozkirli & Pascucci (2023);Experiment 1;Orientation
3;48;30;-18;1.36432240000067;4;72;127;1;Ozkirli & Pascucci (2023);Experiment 1;Orientation
3;95;89;-6;1.18922009999915;4;-47;128;1;Ozkirli & Pascucci (2023);Experiment 1;Orientation
3;64;80;16;0.83088029999999;4;31;129;1;Ozkirli & Pascucci (2023);Experiment 1;Orientation
3;146;170;24;1.89751790000082;4;-82;130;1;Ozkirli & Pascucci (2023);Experiment 1;Orientation
3;81;77;-4;1.28983060000064;4;65;131;0;Ozkirli & Pascucci (2023);Experiment 1;Orientation
3;39;62;23;0.68092230000002;4;42;132;1;Ozkirli & Pascucci (2023);Experiment 1;Orientation
3;96;97;1;0.848213499999474;4;-57;133;0;Ozkirli & Pascucci (2023);Experiment 1;Orientation
3;52;66;14;0.997524799999155;4;44;134;1;Ozkirli & Pascucci (2023);Experiment 1;Orientation
3;58;63;5;0.79787750000105;4;-6;135;1;Ozkirli & Pascucci (2023);Experiment 1;Orientation
3;32;30;-2;1.09763089999979;4;26;136;1;Ozkirli & Pascucci (2023);Experiment 1;Orientation
3;174;162;-12;1.07252580000022;4;38;137;0;Ozkirli & Pascucci (2023);Experiment 1;Orientation
3;156;169;13;1.1723707000001;4;18;138;0;Ozkirli & Pascucci (2023);Experiment 1;Orientation
3;161;174;13;1.01449619999948;4;-5;139;0;Ozkirli & Pascucci (2023);Experiment 1;Orientation
3;117;146;29;1.02289080000082;4;44;140;1;Ozkirli & Pascucci (2023);Experiment 1;Orientation
3;135;136;1;0.922729500000059;4;-18;141;0;Ozkirli & Pascucci (2023);Experiment 1;Orientation
3;24;29;5;0.83104430000094;4;-69;142;0;Ozkirli & Pascucci (2023);Experiment 1;Orientation
3;64;71;7;2.33103409999967;4;-40;143;0;Ozkirli & Pascucci (2023);Experiment 1;Orientation
3;61;70;9;1.11376019999989;4;3;144;0;Ozkirli & Pascucci (2023);Experiment 1;Orientation
3;26;31;5;1.79737100000057;4;35;145;1;Ozkirli & Pascucci (2023);Experiment 1;Orientation
3;17;20;3;0.939141399998334;4;9;146;1;Ozkirli & Pascucci (2023);Experiment 1;Orientation
3;72;70;-2;0.955883200000244;4;-55;147;0;Ozkirli & Pascucci (2023);Experiment 1;Orientation
3;46;36;-10;0.831449200000861;4;26;148;1;Ozkirli & Pascucci (2023);Experiment 1;Orientation
3;117;113;-4;0.588871099998869;4;-71;149;0;Ozkirli & Pascucci (2023);Experiment 1;Orientation
3;16;25;9;1.11411749999934;4;-79;150;0;Ozkirli & Pascucci (2023);Experiment 1;Orientation
3;38;49;11;1.03120859999945;4;-22;151;1;Ozkirli & Pascucci (2023);Experiment 1;Orientation
3;146;142;-4;0.905839200000628;4;72;152;0;Ozkirli & Pascucci (2023);Experiment 1;Orientation
3;29;29;0;1.00591189999977;4;-63;153;1;Ozkirli & Pascucci (2023);Experiment 1;Orientation
3;15;166;-29;0.814232900000206;4;14;154;1;Ozkirli & Pascucci (2023);Experiment 1;Orientation
3;143;148;5;0.947717900000498;4;52;155;0;Ozkirli & Pascucci (2023);Experiment 1;Orientation
3;56;70;14;1.00613200000043;4;87;156;0;Ozkirli & Pascucci (2023);Experiment 1;Orientation
3;134;126;-8;1.0315726000008;4;-78;157;0;Ozkirli & Pascucci (2023);Experiment 1;Orientation
3;118;117;-1;0.814335999999457;4;16;158;0;Ozkirli & Pascucci (2023);Experiment 1;Orientation
3;99;119;20;0.6811413000014;4;19;159;1;Ozkirli & Pascucci (2023);Experiment 1;Orientation
3;103;104;1;1.00595330000033;4;-4;160;0;Ozkirli & Pascucci (2023);Experiment 1;Orientation
3;8;21;13;0.947409200000038;5;-85;161;1;Ozkirli & Pascucci (2023);Experiment 1;Orientation
3;170;172;2;0.856309200000396;5;18;162;1;Ozkirli & Pascucci (2023);Experiment 1;Orientation
3;80;87;7;1.03957529999934;5;90;163;1;Ozkirli & Pascucci (2023);Experiment 1;Orientation
3;25;8;-17;0.855902900000729;5;55;164;1;Ozkirli & Pascucci (2023);Experiment 1;Orientation
3;164;157;-7;0.789707400001134;5;41;165;0;Ozkirli & Pascucci (2023);Experiment 1;Orientation
3;162;21;39;0.73928419999902;5;2;166;1;Ozkirli & Pascucci (2023);Experiment 1;Orientation
3;77;85;8;1.05584520000048;5;85;167;1;Ozkirli & Pascucci (2023);Experiment 1;Orientation
3;152;159;7;0.989210699999603;5;-75;168;0;Ozkirli & Pascucci (2023);Experiment 1;Orientation
3;180;6;6;0.839627899998959;5;-28;169;0;Ozkirli & Pascucci (2023);Experiment 1;Orientation
3;57;82;25;0.906174800000372;5;-57;170;1;Ozkirli & Pascucci (2023);Experiment 1;Orientation
3;106;106;0;0.656537200000457;5;-49;171;1;Ozkirli & Pascucci (2023);Experiment 1;Orientation
3;128;117;-11;1.58917579999979;5;-22;172;0;Ozkirli & Pascucci (2023);Experiment 1;Orientation
3;41;53;12;0.806224299998576;5;87;173;0;Ozkirli & Pascucci (2023);Experiment 1;Orientation
3;151;131;-20;1.76449979999961;5;70;174;0;Ozkirli & Pascucci (2023);Experiment 1;Orientation
3;61;62;1;0.889423800001168;5;90;175;0;Ozkirli & Pascucci (2023);Experiment 1;Orientation
3;83;60;-23;0.522493399999803;5;-22;176;1;Ozkirli & Pascucci (2023);Experiment 1;Orientation
3;36;34;-2;0.838915300000735;5;47;177;1;Ozkirli & Pascucci (2023);Experiment 1;Orientation
3;5;13;8;0.889174300000377;5;31;178;0;Ozkirli & Pascucci (2023);Experiment 1;Orientation
3;108;104;-4;0.864233299998887;5;77;179;0;Ozkirli & Pascucci (2023);Experiment 1;Orientation
3;112;103;-9;1.23921709999922;5;-4;180;0;Ozkirli & Pascucci (2023);Experiment 1;Orientation
3;49;57;8;0.805950699999812;5;63;181;0;Ozkirli & Pascucci (2023);Experiment 1;Orientation
3;47;69;22;0.90573939999922;5;2;182;1;Ozkirli & Pascucci (2023);Experiment 1;Orientation
3;122;117;-5;0.921830300001602;5;-75;183;1;Ozkirli & Pascucci (2023);Experiment 1;Orientation
3;71;81;10;0.972465499999089;5;51;184;0;Ozkirli & Pascucci (2023);Experiment 1;Orientation
3;20;12;-8;1.24789400000009;5;51;185;1;Ozkirli & Pascucci (2023);Experiment 1;Orientation
3;124;115;-9;1.38922249999996;5;76;186;0;Ozkirli & Pascucci (2023);Experiment 1;Orientation
3;130;132;2;0.723102799998742;5;-6;187;0;Ozkirli & Pascucci (2023);Experiment 1;Orientation
3;83;112;29;1.07249430000047;5;47;188;1;Ozkirli & Pascucci (2023);Experiment 1;Orientation
3;144;152;8;0.797613300001103;5;-61;189;0;Ozkirli & Pascucci (2023);Experiment 1;Orientation
3;10;17;7;0.739624199999525;5;-46;190;1;Ozkirli & Pascucci (2023);Experiment 1;Orientation
3;169;158;-11;1.01452909999898;5;21;191;0;Ozkirli & Pascucci (2023);Experiment 1;Orientation
3;70;77;7;0.54774929999985;5;-81;192;1;Ozkirli & Pascucci (2023);Experiment 1;Orientation
3;105;111;6;0.998040700000274;5;-35;193;0;Ozkirli & Pascucci (2023);Experiment 1;Orientation
3;43;55;12;0.981248100000812;5;62;194;0;Ozkirli & Pascucci (2023);Experiment 1;Orientation
3;58;66;8;1.86387359999935;5;-15;195;1;Ozkirli & Pascucci (2023);Experiment 1;Orientation
3;63;67;4;0.648264900000868;5;-5;196;1;Ozkirli & Pascucci (2023);Experiment 1;Orientation
3;159;157;-2;0.631006700001308;5;84;197;0;Ozkirli & Pascucci (2023);Experiment 1;Orientation
3;22;40;18;1.79726279999886;5;-43;198;0;Ozkirli & Pascucci (2023);Experiment 1;Orientation
3;28;35;7;0.880844499999512;5;-6;199;0;Ozkirli & Pascucci (2023);Experiment 1;Orientation
3;19;26;7;1.19762099999934;5;9;200;1;Ozkirli & Pascucci (2023);Experiment 1;Orientation
3;148;163;15;0.722515499999645;6;51;201;1;Ozkirli & Pascucci (2023);Experiment 1;Orientation
3;18;31;13;1.30622829999993;6;-50;202;1;Ozkirli & Pascucci (2023);Experiment 1;Orientation
3;122;104;-18;0.905847399999402;6;76;203;1;Ozkirli & Pascucci (2023);Experiment 1;Orientation
3;87;84;-3;0.947660499999984;6;35;204;0;Ozkirli & Pascucci (2023);Experiment 1;Orientation
3;155;170;15;1.06421130000126;6;-68;205;1;Ozkirli & Pascucci (2023);Experiment 1;Orientation
3;171;167;-4;1.38960609999958;6;-16;206;0;Ozkirli & Pascucci (2023);Experiment 1;Orientation
3;3;17;14;1.05583429999933;6;-12;207;0;Ozkirli & Pascucci (2023);Experiment 1;Orientation
3;24;31;7;0.997490399999151;6;-21;208;0;Ozkirli & Pascucci (2023);Experiment 1;Orientation
3;173;160;-13;0.95584240000062;6;31;209;1;Ozkirli & Pascucci (2023);Experiment 1;Orientation
3;52;46;-6;0.706283400000757;6;-59;210;1;Ozkirli & Pascucci (2023);Experiment 1;Orientation
3;44;64;20;1.19736310000008;6;8;211;0;Ozkirli & Pascucci (2023);Experiment 1;Orientation
3;76;87;11;1.10627550000027;6;-32;212;0;Ozkirli & Pascucci (2023);Experiment 1;Orientation
3;154;159;5;0.789199900000312;6;-78;213;1;Ozkirli & Pascucci (2023);Experiment 1;Orientation
3;49;53;4;0.822477300000173;6;-75;214;0;Ozkirli & Pascucci (2023);Experiment 1;Orientation
3;61;73;12;0.973139199999423;6;-12;215;0;Ozkirli & Pascucci (2023);Experiment 1;Orientation
3;12;0;-12;0.997779500001343;6;49;216;1;Ozkirli & Pascucci (2023);Experiment 1;Orientation
3;22;13;-9;0.772215099999812;6;-10;217;0;Ozkirli & Pascucci (2023);Experiment 1;Orientation
3;173;168;-5;1.2557541999995;6;29;218;1;Ozkirli & Pascucci (2023);Experiment 1;Orientation
3;139;137;-2;0.697534199998699;6;34;219;0;Ozkirli & Pascucci (2023);Experiment 1;Orientation
3;135;155;20;1.27240179999899;6;4;220;1;Ozkirli & Pascucci (2023);Experiment 1;Orientation
3;13;16;3;1.01455139999962;6;-58;221;0;Ozkirli & Pascucci (2023);Experiment 1;Orientation
3;39;57;18;1.08922840000014;6;-26;222;1;Ozkirli & Pascucci (2023);Experiment 1;Orientation
3;176;162;-14;1.23081180000008;6;43;223;1;Ozkirli & Pascucci (2023);Experiment 1;Orientation
3;146;135;-11;1.09757119999995;6;30;224;0;Ozkirli & Pascucci (2023);Experiment 1;Orientation
3;58;59;1;0.63916060000156;6;88;225;1;Ozkirli & Pascucci (2023);Experiment 1;Orientation
3;111;114;3;0.997616799999378;6;-53;226;0;Ozkirli & Pascucci (2023);Experiment 1;Orientation
3;108;112;4;0.689338599999246;6;3;227;0;Ozkirli & Pascucci (2023);Experiment 1;Orientation
3;38;56;18;0.822787099999914;6;70;228;0;Ozkirli & Pascucci (2023);Experiment 1;Orientation
3;64;57;-7;0.97240039999997;6;-26;229;0;Ozkirli & Pascucci (2023);Experiment 1;Orientation
3;74;65;-9;0.906557199999952;6;-10;230;0;Ozkirli & Pascucci (2023);Experiment 1;Orientation
3;129;112;-17;1.31423160000122;6;-55;231;0;Ozkirli & Pascucci (2023);Experiment 1;Orientation
3;102;122;20;0.939943100000164;6;27;232;1;Ozkirli & Pascucci (2023);Experiment 1;Orientation
3;176;143;-33;0.614891799999896;6;-74;233;0;Ozkirli & Pascucci (2023);Experiment 1;Orientation
3;26;37;11;1.1058467999992;6;-30;234;0;Ozkirli & Pascucci (2023);Experiment 1;Orientation
3;34;22;-12;1.20569760000035;6;-8;235;1;Ozkirli & Pascucci (2023);Experiment 1;Orientation
3;76;106;30;1.02288079999926;6;-42;236;1;Ozkirli & Pascucci (2023);Experiment 1;Orientation
3;30;22;-8;0.972914200001469;6;46;237;1;Ozkirli & Pascucci (2023);Experiment 1;Orientation
3;7;156;-31;0.86476330000005;6;23;238;1;Ozkirli & Pascucci (2023);Experiment 1;Orientation
3;12;17;5;1.11493070000142;6;-5;239;0;Ozkirli & Pascucci (2023);Experiment 1;Orientation
3;141;145;4;1.2395661999999;6;51;240;1;Ozkirli & Pascucci (2023);Experiment 1;Orientation
3;13;26;13;1.33140830000048;7;-52;241;0;Ozkirli & Pascucci (2023);Experiment 1;Orientation
3;27;14;-13;1.00598990000071;7;-14;242;0;Ozkirli & Pascucci (2023);Experiment 1;Orientation
3;136;140;4;0.872597499999756;7;71;243;0;Ozkirli & Pascucci (2023);Experiment 1;Orientation
3;55;50;-5;0.96427550000044;7;81;244;0;Ozkirli & Pascucci (2023);Experiment 1;Orientation
3;40;27;-13;1.00580930000069;7;15;245;1;Ozkirli & Pascucci (2023);Experiment 1;Orientation
3;55;65;10;0.930912699999681;7;-15;246;0;Ozkirli & Pascucci (2023);Experiment 1;Orientation
3;158;157;-1;1.11453239999901;7;77;247;0;Ozkirli & Pascucci (2023);Experiment 1;Orientation
3;141;131;-10;0.722570899999482;7;17;248;1;Ozkirli & Pascucci (2023);Experiment 1;Orientation
3;168;169;1;0.855943900000057;7;-27;249;0;Ozkirli & Pascucci (2023);Experiment 1;Orientation
3;178;170;-8;1.98917860000074;7;-10;250;0;Ozkirli & Pascucci (2023);Experiment 1;Orientation
3;51;64;13;0.565058000000136;7;-53;251;0;Ozkirli & Pascucci (2023);Experiment 1;Orientation
3;65;74;9;0.939572600000247;7;-14;252;0;Ozkirli & Pascucci (2023);Experiment 1;Orientation
3;124;122;-2;0.756348099999741;7;-59;253;1;Ozkirli & Pascucci (2023);Experiment 1;Orientation
3;145;138;-7;0.756021400000463;7;-21;254;0;Ozkirli & Pascucci (2023);Experiment 1;Orientation
3;94;110;16;1.33945970000059;7;51;255;1;Ozkirli & Pascucci (2023);Experiment 1;Orientation
3;129;115;-14;1.01400110000031;7;-35;256;1;Ozkirli & Pascucci (2023);Experiment 1;Orientation
3;58;78;20;1.14764540000033;7;71;257;0;Ozkirli & Pascucci (2023);Experiment 1;Orientation
3;103;112;9;1.1559318999989;7;-45;258;1;Ozkirli & Pascucci (2023);Experiment 1;Orientation
3;148;157;9;1.10647359999894;7;-45;259;0;Ozkirli & Pascucci (2023);Experiment 1;Orientation
3;34;8;-26;1.26485599999978;7;-66;260;1;Ozkirli & Pascucci (2023);Experiment 1;Orientation
3;179;174;-5;0.623141300000498;7;35;261;0;Ozkirli & Pascucci (2023);Experiment 1;Orientation
3;45;23;-22;0.939222499999232;7;-46;262;1;Ozkirli & Pascucci (2023);Experiment 1;Orientation
3;116;107;-9;0.697562999999718;7;-71;263;1;Ozkirli & Pascucci (2023);Experiment 1;Orientation
3;103;103;0;0.922937600000296;7;13;264;1;Ozkirli & Pascucci (2023);Experiment 1;Orientation
3;136;106;-30;0.749685800001316;7;-33;265;1;Ozkirli & Pascucci (2023);Experiment 1;Orientation
3;90;82;-8;0.906497200001468;7;46;266;0;Ozkirli & Pascucci (2023);Experiment 1;Orientation
3;79;78;-1;0.972669099999621;7;11;267;1;Ozkirli & Pascucci (2023);Experiment 1;Orientation
3;63;62;-1;1.06416139999965;7;16;268;1;Ozkirli & Pascucci (2023);Experiment 1;Orientation
3;144;142;-2;1.03922690000036;7;-81;269;0;Ozkirli & Pascucci (2023);Experiment 1;Orientation
3;32;42;10;0.689285599999494;7;-68;270;1;Ozkirli & Pascucci (2023);Experiment 1;Orientation
3;92;107;15;0.889255500000218;7;-60;271;1;Ozkirli & Pascucci (2023);Experiment 1;Orientation
3;85;93;8;1.10626149999916;7;7;272;1;Ozkirli & Pascucci (2023);Experiment 1;Orientation
3;157;161;4;0.822895400000561;7;-72;273;1;Ozkirli & Pascucci (2023);Experiment 1;Orientation
3;73;81;8;0.689751100000649;7;84;274;1;Ozkirli & Pascucci (2023);Experiment 1;Orientation
3;135;143;8;1.28072069999871;7;-62;275;0;Ozkirli & Pascucci (2023);Experiment 1;Orientation
3;106;111;5;1.5058224000004;7;29;276;0;Ozkirli & Pascucci (2023);Experiment 1;Orientation
3;117;112;-5;1.3230351000002;7;-11;277;0;Ozkirli & Pascucci (2023);Experiment 1;Orientation
3;79;83;4;0.830553100000543;7;38;278;1;Ozkirli & Pascucci (2023);Experiment 1;Orientation
3;175;165;-10;1.62242920000062;7;84;279;0;Ozkirli & Pascucci (2023);Experiment 1;Orientation
3;112;103;-9;1.1225099000003;7;63;280;1;Ozkirli & Pascucci (2023);Experiment 1;Orientation
3;170;165;-5;1.14750730000014;8;-58;281;1;Ozkirli & Pascucci (2023);Experiment 1;Orientation
3;52;78;26;1.03930770000079;8;-62;282;1;Ozkirli & Pascucci (2023);Experiment 1;Orientation
3;142;160;18;0.747965399999885;8;-90;283;1;Ozkirli & Pascucci (2023);Experiment 1;Orientation
3;115;104;-11;1.20612489999985;8;27;284;0;Ozkirli & Pascucci (2023);Experiment 1;Orientation
3;153;169;16;0.830876099998932;8;-38;285;1;Ozkirli & Pascucci (2023);Experiment 1;Orientation
3;34;25;-9;1.29781469999944;8;-61;286;0;Ozkirli & Pascucci (2023);Experiment 1;Orientation
3;28;14;-14;0.931204900000012;8;6;287;0;Ozkirli & Pascucci (2023);Experiment 1;Orientation
3;86;85;-1;0.731111399998554;8;-58;288;1;Ozkirli & Pascucci (2023);Experiment 1;Orientation
3;114;107;-7;0.764770199999475;8;-28;289;0;Ozkirli & Pascucci (2023);Experiment 1;Orientation
3;53;19;-34;0.980933700000605;8;61;290;1;Ozkirli & Pascucci (2023);Experiment 1;Orientation
3;100;105;5;0.880948100000751;8;-47;291;0;Ozkirli & Pascucci (2023);Experiment 1;Orientation
3;141;138;-3;1.24769800000104;8;-41;292;0;Ozkirli & Pascucci (2023);Experiment 1;Orientation
3;72;81;9;1.08928610000112;8;69;293;1;Ozkirli & Pascucci (2023);Experiment 1;Orientation
3;148;135;-13;1.16482610000094;8;-76;294;0;Ozkirli & Pascucci (2023);Experiment 1;Orientation
3;147;149;2;1.1142351999988;8;1;295;1;Ozkirli & Pascucci (2023);Experiment 1;Orientation
3;173;167;-6;0.738925800000288;8;-26;296;1;Ozkirli & Pascucci (2023);Experiment 1;Orientation
3;168;164;-4;1.28122099999928;8;5;297;1;Ozkirli & Pascucci (2023);Experiment 1;Orientation
3;79;80;1;0.672798900000998;8;89;298;0;Ozkirli & Pascucci (2023);Experiment 1;Orientation
3;147;156;9;0.755935299999692;8;-68;299;0;Ozkirli & Pascucci (2023);Experiment 1;Orientation
3;178;14;16;1.45626480000101;8;-31;300;0;Ozkirli & Pascucci (2023);Experiment 1;Orientation
3;132;157;25;0.864267500001006;8;46;301;1;Ozkirli & Pascucci (2023);Experiment 1;Orientation
3;44;29;-15;0.85559959999955;8;88;302;1;Ozkirli & Pascucci (2023);Experiment 1;Orientation
3;78;83;5;0.855875999999625;8;-34;303;1;Ozkirli & Pascucci (2023);Experiment 1;Orientation
3;4;15;11;1.11436879999928;8;74;304;1;Ozkirli & Pascucci (2023);Experiment 1;Orientation
3;140;161;21;1.06447809999918;8;44;305;1;Ozkirli & Pascucci (2023);Experiment 1;Orientation
3;154;141;-13;0.730926999998701;8;-14;306;0;Ozkirli & Pascucci (2023);Experiment 1;Orientation
3;121;153;32;0.872894300000553;8;33;307;1;Ozkirli & Pascucci (2023);Experiment 1;Orientation
3;52;72;20;0.997454000000289;8;69;308;0;Ozkirli & Pascucci (2023);Experiment 1;Orientation
3;62;75;13;0.85646799999995;8;-10;309;1;Ozkirli & Pascucci (2023);Experiment 1;Orientation
3;84;73;-11;0.997844699999405;8;-22;310;1;Ozkirli & Pascucci (2023);Experiment 1;Orientation
3;74;78;4;1.17199900000014;8;10;311;0;Ozkirli & Pascucci (2023);Experiment 1;Orientation
3;154;175;21;0.606349699999555;8;-80;312;1;Ozkirli & Pascucci (2023);Experiment 1;Orientation
3;158;154;-4;0.839403300000413;8;-4;313;0;Ozkirli & Pascucci (2023);Experiment 1;Orientation
3;153;167;14;0.813907100000506;8;5;314;1;Ozkirli & Pascucci (2023);Experiment 1;Orientation
3;71;71;0;0.747556899999836;8;82;315;0;Ozkirli & Pascucci (2023);Experiment 1;Orientation
3;169;168;-1;0.872662800000398;8;82;316;1;Ozkirli & Pascucci (2023);Experiment 1;Orientation
3;145;159;14;0.772847500000353;8;24;317;0;Ozkirli & Pascucci (2023);Experiment 1;Orientation
3;69;80;11;0.964116799999829;8;76;318;1;Ozkirli & Pascucci (2023);Experiment 1;Orientation
3;45;56;11;0.772228099998756;8;24;319;0;Ozkirli & Pascucci (2023);Experiment 1;Orientation
3;105;92;-13;1.45629989999907;8;-60;320;1;Ozkirli & Pascucci (2023);Experiment 1;Orientation
3;19;10;-9;1.03122529999928;9;86;321;1;Ozkirli & Pascucci (2023);Experiment 1;Orientation
3;104;106;2;1.0890576999991;9;-85;322;0;Ozkirli & Pascucci (2023);Experiment 1;Orientation
3;13;12;-1;0.764139599999908;9;-89;323;0;Ozkirli & Pascucci (2023);Experiment 1;Orientation
3;83;104;21;1.03976349999903;9;-70;324;1;Ozkirli & Pascucci (2023);Experiment 1;Orientation
3;12;16;4;1.20592690000012;9;71;325;1;Ozkirli & Pascucci (2023);Experiment 1;Orientation
3;131;120;-11;0.61461959999906;9;61;326;1;Ozkirli & Pascucci (2023);Experiment 1;Orientation
3;51;71;20;0.631667199999356;9;80;327;1;Ozkirli & Pascucci (2023);Experiment 1;Orientation
3;65;119;54;1.59768570000051;9;-14;328;1;Ozkirli & Pascucci (2023);Experiment 1;Orientation
3;114;108;-6;0.872716599998967;9;-49;329;1;Ozkirli & Pascucci (2023);Experiment 1;Orientation
3;55;67;12;0.481007700000191;9;59;330;0;Ozkirli & Pascucci (2023);Experiment 1;Orientation
3;94;89;-5;0.98925269999927;9;-39;331;1;Ozkirli & Pascucci (2023);Experiment 1;Orientation
3;65;63;-2;0.847785900001327;9;29;332;0;Ozkirli & Pascucci (2023);Experiment 1;Orientation
3;148;139;-9;0.748161199999231;9;-83;333;1;Ozkirli & Pascucci (2023);Experiment 1;Orientation
3;173;159;-14;0.697535799999969;9;-25;334;0;Ozkirli & Pascucci (2023);Experiment 1;Orientation
3;97;99;2;1.18071389999932;9;76;335;0;Ozkirli & Pascucci (2023);Experiment 1;Orientation
3;71;82;11;0.939239799999996;9;26;336;1;Ozkirli & Pascucci (2023);Experiment 1;Orientation
3;168;174;6;0.722514000000956;9;83;337;1;Ozkirli & Pascucci (2023);Experiment 1;Orientation
3;169;175;6;0.714254999998957;9;-1;338;1;Ozkirli & Pascucci (2023);Experiment 1;Orientation
3;107;97;-10;0.565598099999988;9;62;339;1;Ozkirli & Pascucci (2023);Experiment 1;Orientation
3;84;100;16;0.922479200000453;9;23;340;1;Ozkirli & Pascucci (2023);Experiment 1;Orientation
3;111;96;-15;1.73911120000048;9;-27;341;0;Ozkirli & Pascucci (2023);Experiment 1;Orientation
3;103;99;-4;0.914241999998922;9;8;342;1;Ozkirli & Pascucci (2023);Experiment 1;Orientation
3;114;108;-6;0.931139899999835;9;-11;343;0;Ozkirli & Pascucci (2023);Experiment 1;Orientation
3;81;80;-1;0.864266399999906;9;33;344;0;Ozkirli & Pascucci (2023);Experiment 1;Orientation
3;101;104;3;0.723159700000906;9;-20;345;0;Ozkirli & Pascucci (2023);Experiment 1;Orientation
3;161;14;33;1.15592169999945;9;-60;346;1;Ozkirli & Pascucci (2023);Experiment 1;Orientation
3;49;48;-1;0.805820499999754;9;-68;347;1;Ozkirli & Pascucci (2023);Experiment 1;Orientation
3;59;56;-3;0.655912700000044;9;-10;348;1;Ozkirli & Pascucci (2023);Experiment 1;Orientation
3;176;163;-13;0.922487899999396;9;63;349;1;Ozkirli & Pascucci (2023);Experiment 1;Orientation
3;52;21;-31;0.722304900000381;9;-56;350;1;Ozkirli & Pascucci (2023);Experiment 1;Orientation
3;168;159;-9;0.806058300000586;9;64;351;0;Ozkirli & Pascucci (2023);Experiment 1;Orientation
3;71;77;6;0.764463299999989;9;-83;352;0;Ozkirli & Pascucci (2023);Experiment 1;Orientation
3;80;155;75;1.31459940000059;9;-9;353;1;Ozkirli & Pascucci (2023);Experiment 1;Orientation
3;127;125;-2;0.77265670000088;9;-47;354;0;Ozkirli & Pascucci (2023);Experiment 1;Orientation
3;95;104;9;1.1224044999999;9;32;355;1;Ozkirli & Pascucci (2023);Experiment 1;Orientation
3;148;160;12;0.864415500000177;9;-53;356;1;Ozkirli & Pascucci (2023);Experiment 1;Orientation
3;87;86;-1;0.556451700000252;9;61;357;0;Ozkirli & Pascucci (2023);Experiment 1;Orientation
3;117;107;-10;0.481596899999204;9;-30;358;1;Ozkirli & Pascucci (2023);Experiment 1;Orientation
3;83;74;-9;0.689588500001264;9;34;359;1;Ozkirli & Pascucci (2023);Experiment 1;Orientation
3;114;106;-8;0.705910499998936;9;-31;360;1;Ozkirli & Pascucci (2023);Experiment 1;Orientation
3;107;103;-4;0.989197799999602;10;7;361;1;Ozkirli & Pascucci (2023);Experiment 1;Orientation
3;68;74;6;0.655866299999616;10;39;362;0;Ozkirli & Pascucci (2023);Experiment 1;Orientation
3;129;125;-4;0.864195900001505;10;-61;363;0;Ozkirli & Pascucci (2023);Experiment 1;Orientation
3;161;154;-7;0.739319700000124;10;-32;364;0;Ozkirli & Pascucci (2023);Experiment 1;Orientation
3;51;59;8;0.731336999999257;10;-70;365;0;Ozkirli & Pascucci (2023);Experiment 1;Orientation
3;37;46;9;0.830970200000593;10;14;366;0;Ozkirli & Pascucci (2023);Experiment 1;Orientation
3;82;80;-2;0.856565799998862;10;-45;367;0;Ozkirli & Pascucci (2023);Experiment 1;Orientation
3;58;60;2;1.1643339000002;10;24;368;0;Ozkirli & Pascucci (2023);Experiment 1;Orientation
3;94;85;-9;0.539660800001002;10;-36;369;1;Ozkirli & Pascucci (2023);Experiment 1;Orientation
3;132;69;-63;0.555900100000144;10;-38;370;1;Ozkirli & Pascucci (2023);Experiment 1;Orientation
3;138;141;3;1.0308311000008;10;-6;371;0;Ozkirli & Pascucci (2023);Experiment 1;Orientation
3;120;114;-6;0.68168549999973;10;18;372;1;Ozkirli & Pascucci (2023);Experiment 1;Orientation
3;122;128;6;0.889165600001434;10;-2;373;0;Ozkirli & Pascucci (2023);Experiment 1;Orientation
3;46;52;6;0.680879499999719;10;76;374;0;Ozkirli & Pascucci (2023);Experiment 1;Orientation
3;122;114;-8;0.614894300000742;10;-76;375;0;Ozkirli & Pascucci (2023);Experiment 1;Orientation
3;32;36;4;0.814891300000454;10;90;376;0;Ozkirli & Pascucci (2023);Experiment 1;Orientation
3;116;121;5;0.789852999998402;10;-84;377;1;Ozkirli & Pascucci (2023);Experiment 1;Orientation
3;152;170;18;1.73029959999985;10;-36;378;1;Ozkirli & Pascucci (2023);Experiment 1;Orientation
3;118;115;-3;1.01480639999863;10;34;379;0;Ozkirli & Pascucci (2023);Experiment 1;Orientation
3;142;156;14;0.747658700000102;10;-24;380;1;Ozkirli & Pascucci (2023);Experiment 1;Orientation
3;122;128;6;1.41447369999878;10;20;381;0;Ozkirli & Pascucci (2023);Experiment 1;Orientation
3;75;151;76;1.36474240000098;10;47;382;1;Ozkirli & Pascucci (2023);Experiment 1;Orientation
3;115;106;-9;0.481341299999258;10;-40;383;1;Ozkirli & Pascucci (2023);Experiment 1;Orientation
3;7;16;9;1.28073999999833;10;-72;384;0;Ozkirli & Pascucci (2023);Experiment 1;Orientation
3;62;74;12;0.664070599999832;10;-55;385;0;Ozkirli & Pascucci (2023);Experiment 1;Orientation
3;120;117;-3;0.939279500000339;10;-58;386;0;Ozkirli & Pascucci (2023);Experiment 1;Orientation
3;48;25;-23;0.66427830000066;10;72;387;1;Ozkirli & Pascucci (2023);Experiment 1;Orientation
3;4;15;11;0.814242100001138;10;44;388;0;Ozkirli & Pascucci (2023);Experiment 1;Orientation
3;115;112;-3;1.22250600000007;10;69;389;0;Ozkirli & Pascucci (2023);Experiment 1;Orientation
3;78;71;-7;0.581514499999685;10;37;390;0;Ozkirli & Pascucci (2023);Experiment 1;Orientation
3;8;22;14;1.95594330000131;10;70;391;1;Ozkirli & Pascucci (2023);Experiment 1;Orientation
3;165;163;-2;0.898149800001192;10;23;392;0;Ozkirli & Pascucci (2023);Experiment 1;Orientation
3;143;156;13;1.43988739999986;10;22;393;0;Ozkirli & Pascucci (2023);Experiment 1;Orientation
3;129;139;10;1.12241530000028;10;14;394;1;Ozkirli & Pascucci (2023);Experiment 1;Orientation
3;144;143;-1;1.03918909999993;10;-15;395;1;Ozkirli & Pascucci (2023);Experiment 1;Orientation
3;63;23;-40;0.880790199998955;10;81;396;1;Ozkirli & Pascucci (2023);Experiment 1;Orientation
3;50;40;-10;0.839449299999615;10;13;397;1;Ozkirli & Pascucci (2023);Experiment 1;Orientation
3;28;28;0;1.08143480000035;10;22;398;0;Ozkirli & Pascucci (2023);Experiment 1;Orientation
3;111;108;-3;1.12276240000028;10;-83;399;1;Ozkirli & Pascucci (2023);Experiment 1;Orientation
3;29;56;27;1.20576169999913;10;82;400;1;Ozkirli & Pascucci (2023);Experiment 1;Orientation
4;118;112;-6;1.28924929999994;1;NaN;1;0;Ozkirli & Pascucci (2023);Experiment 1;Orientation
4;87;105;18;1.07237669999995;1;31;2;1;Ozkirli & Pascucci (2023);Experiment 1;Orientation
4;115;114;-1;1.39750749999985;1;-28;3;0;Ozkirli & Pascucci (2023);Experiment 1;Orientation
4;159;22;43;0.781335800000306;1;-44;4;1;Ozkirli & Pascucci (2023);Experiment 1;Orientation
4;32;29;-3;1.94774460000008;1;-53;5;0;Ozkirli & Pascucci (2023);Experiment 1;Orientation
4;149;8;39;2.15577699999994;1;63;6;1;Ozkirli & Pascucci (2023);Experiment 1;Orientation
4;135;126;-9;1.38086239999939;1;14;7;0;Ozkirli & Pascucci (2023);Experiment 1;Orientation
4;22;36;14;0.948162700000466;1;-67;8;0;Ozkirli & Pascucci (2023);Experiment 1;Orientation
4;69;44;-25;1.03921380000065;1;-47;9;1;Ozkirli & Pascucci (2023);Experiment 1;Orientation
4;142;139;-3;2.18899699999929;1;-73;10;0;Ozkirli & Pascucci (2023);Experiment 1;Orientation
4;11;19;8;1.10630330000095;1;-49;11;0;Ozkirli & Pascucci (2023);Experiment 1;Orientation
4;95;73;-22;1.54795800000102;1;-84;12;1;Ozkirli & Pascucci (2023);Experiment 1;Orientation
4;162;0;18;2.26407950000066;1;-67;13;1;Ozkirli & Pascucci (2023);Experiment 1;Orientation
4;10;11;1;1.97263109999949;1;-28;14;1;Ozkirli & Pascucci (2023);Experiment 1;Orientation
4;88;76;-12;2.43912360000104;1;-78;15;1;Ozkirli & Pascucci (2023);Experiment 1;Orientation
4;92;63;-29;1.11478649999844;1;-4;16;1;Ozkirli & Pascucci (2023);Experiment 1;Orientation
4;81;69;-12;1.79765569999836;1;11;17;0;Ozkirli & Pascucci (2023);Experiment 1;Orientation
4;159;146;-13;1.04756090000046;1;-78;18;0;Ozkirli & Pascucci (2023);Experiment 1;Orientation
4;3;14;11;2.2723791999997;1;-24;19;0;Ozkirli & Pascucci (2023);Experiment 1;Orientation
4;2;1;-1;1.74728219999997;1;1;20;1;Ozkirli & Pascucci (2023);Experiment 1;Orientation
4;46;68;22;2.14757060000011;1;-44;21;0;Ozkirli & Pascucci (2023);Experiment 1;Orientation
4;155;152;-3;1.39750660000027;1;71;22;1;Ozkirli & Pascucci (2023);Experiment 1;Orientation
4;56;65;9;0.880973299999823;1;-81;23;0;Ozkirli & Pascucci (2023);Experiment 1;Orientation
4;29;54;25;0.739583800001128;1;27;24;0;Ozkirli & Pascucci (2023);Experiment 1;Orientation
4;168;154;-14;1.15578760000062;1;41;25;0;Ozkirli & Pascucci (2023);Experiment 1;Orientation
4;71;76;5;0.722673700000087;1;-83;26;1;Ozkirli & Pascucci (2023);Experiment 1;Orientation
4;81;75;-6;1.50605260000157;1;-10;27;1;Ozkirli & Pascucci (2023);Experiment 1;Orientation
4;81;85;4;1.24798800000099;1;0;28;0;Ozkirli & Pascucci (2023);Experiment 1;Orientation
4;83;86;3;1.69733690000066;1;-2;29;1;Ozkirli & Pascucci (2023);Experiment 1;Orientation
4;111;112;1;1.21387030000005;1;-28;30;0;Ozkirli & Pascucci (2023);Experiment 1;Orientation
4;29;31;2;1.53916879999997;1;82;31;0;Ozkirli & Pascucci (2023);Experiment 1;Orientation
4;125;120;-5;1.08954989999984;1;84;32;1;Ozkirli & Pascucci (2023);Experiment 1;Orientation
4;179;6;7;1.50589540000146;1;-54;33;1;Ozkirli & Pascucci (2023);Experiment 1;Orientation
4;65;67;2;1.10591310000018;1;-66;34;1;Ozkirli & Pascucci (2023);Experiment 1;Orientation
4;53;32;-21;1.43108550000034;1;12;35;1;Ozkirli & Pascucci (2023);Experiment 1;Orientation
4;63;74;11;2.1146076999994;1;-10;36;1;Ozkirli & Pascucci (2023);Experiment 1;Orientation
4;21;19;-2;1.53123520000008;1;42;37;1;Ozkirli & Pascucci (2023);Experiment 1;Orientation
4;130;142;12;1.12308139999914;1;71;38;1;Ozkirli & Pascucci (2023);Experiment 1;Orientation
4;105;106;1;1.08146719999968;1;25;39;0;Ozkirli & Pascucci (2023);Experiment 1;Orientation
4;18;29;11;0.60591469999963;1;87;40;1;Ozkirli & Pascucci (2023);Experiment 1;Orientation
4;123;114;-9;0.689783300000272;2;75;41;1;Ozkirli & Pascucci (2023);Experiment 1;Orientation
4;34;40;6;0.897593100000449;2;89;42;1;Ozkirli & Pascucci (2023);Experiment 1;Orientation
4;113;100;-13;1.12252569999873;2;-79;43;1;Ozkirli & Pascucci (2023);Experiment 1;Orientation
4;47;55;8;0.898132899999837;2;66;44;0;Ozkirli & Pascucci (2023);Experiment 1;Orientation
4;42;48;6;0.772935499999221;2;5;45;1;Ozkirli & Pascucci (2023);Experiment 1;Orientation
4;124;107;-17;0.989255599999524;2;-82;46;1;Ozkirli & Pascucci (2023);Experiment 1;Orientation
4;94;79;-15;0.839300599998751;2;30;47;1;Ozkirli & Pascucci (2023);Experiment 1;Orientation
4;3;170;-13;1.65579719999914;2;-89;48;0;Ozkirli & Pascucci (2023);Experiment 1;Orientation
4;14;9;-5;2.37296440000136;2;-11;49;0;Ozkirli & Pascucci (2023);Experiment 1;Orientation
4;15;13;-2;1.16385959999934;2;-1;50;1;Ozkirli & Pascucci (2023);Experiment 1;Orientation
4;128;141;13;1.23079380000127;2;67;51;1;Ozkirli & Pascucci (2023);Experiment 1;Orientation
4;126;131;5;1.06417540000075;2;2;52;0;Ozkirli & Pascucci (2023);Experiment 1;Orientation
4;119;108;-11;2.0890973000005;2;7;53;1;Ozkirli & Pascucci (2023);Experiment 1;Orientation
4;89;89;0;1.50569730000097;2;30;54;0;Ozkirli & Pascucci (2023);Experiment 1;Orientation
4;151;153;2;1.78075040000112;2;-62;55;0;Ozkirli & Pascucci (2023);Experiment 1;Orientation
4;144;155;11;1.31453849999889;2;7;56;1;Ozkirli & Pascucci (2023);Experiment 1;Orientation
4;21;23;2;1.96404249999978;2;-57;57;0;Ozkirli & Pascucci (2023);Experiment 1;Orientation
4;130;128;-2;1.04747859999952;2;71;58;0;Ozkirli & Pascucci (2023);Experiment 1;Orientation
4;129;133;4;0.613944599999741;2;1;59;1;Ozkirli & Pascucci (2023);Experiment 1;Orientation
4;7;24;17;1.03156099999978;2;-58;60;1;Ozkirli & Pascucci (2023);Experiment 1;Orientation
4;121;116;-5;1.07260730000053;2;66;61;0;Ozkirli & Pascucci (2023);Experiment 1;Orientation
4;165;155;-10;1.38915400000042;2;-44;62;0;Ozkirli & Pascucci (2023);Experiment 1;Orientation
4;9;19;10;1.3475610000005;2;-24;63;0;Ozkirli & Pascucci (2023);Experiment 1;Orientation
4;39;45;6;1.59790619999876;2;-30;64;1;Ozkirli & Pascucci (2023);Experiment 1;Orientation
4;105;98;-7;1.3062172000009;2;-66;65;1;Ozkirli & Pascucci (2023);Experiment 1;Orientation
4;118;79;-39;1.72252069999922;2;-13;66;1;Ozkirli & Pascucci (2023);Experiment 1;Orientation
4;38;53;15;0.539281299999857;2;80;67;1;Ozkirli & Pascucci (2023);Experiment 1;Orientation
4;103;111;8;1.21461850000014;2;-65;68;1;Ozkirli & Pascucci (2023);Experiment 1;Orientation
4;58;50;-8;1.08094259999962;2;45;69;0;Ozkirli & Pascucci (2023);Experiment 1;Orientation
4;106;111;5;0.689205099999526;2;-48;70;0;Ozkirli & Pascucci (2023);Experiment 1;Orientation
4;91;86;-5;2.89755520000108;2;15;71;0;Ozkirli & Pascucci (2023);Experiment 1;Orientation
4;124;105;-19;2.88917550000042;2;-33;72;1;Ozkirli & Pascucci (2023);Experiment 1;Orientation
4;124;115;-9;1.29738849999922;2;0;73;0;Ozkirli & Pascucci (2023);Experiment 1;Orientation
4;126;112;-14;2.26606840000022;2;-2;74;0;Ozkirli & Pascucci (2023);Experiment 1;Orientation
4;22;47;25;1.38045620000048;2;-76;75;0;Ozkirli & Pascucci (2023);Experiment 1;Orientation
4;70;78;8;1.31398420000005;2;-48;76;0;Ozkirli & Pascucci (2023);Experiment 1;Orientation
4;174;164;-10;1.35613809999995;2;76;77;0;Ozkirli & Pascucci (2023);Experiment 1;Orientation
4;38;58;20;1.33075429999917;2;-44;78;1;Ozkirli & Pascucci (2023);Experiment 1;Orientation
4;12;0;-12;1.54763389999971;2;26;79;1;Ozkirli & Pascucci (2023);Experiment 1;Orientation
4;86;88;2;0.997682699999132;2;-74;80;0;Ozkirli & Pascucci (2023);Experiment 1;Orientation
4;87;83;-4;1.17279560000134;3;-1;81;0;Ozkirli & Pascucci (2023);Experiment 1;Orientation
4;109;100;-9;0.839182699999583;3;-22;82;1;Ozkirli & Pascucci (2023);Experiment 1;Orientation
4;106;97;-9;1.39740420000089;3;3;83;0;Ozkirli & Pascucci (2023);Experiment 1;Orientation
4;159;145;-14;1.56404529999963;3;-53;84;0;Ozkirli & Pascucci (2023);Experiment 1;Orientation
4;177;172;-5;1.0723452000002;3;-18;85;0;Ozkirli & Pascucci (2023);Experiment 1;Orientation
4;52;50;-2;0.939809999999852;3;-55;86;1;Ozkirli & Pascucci (2023);Experiment 1;Orientation
4;101;113;12;0.997530599999664;3;-49;87;1;Ozkirli & Pascucci (2023);Experiment 1;Orientation
4;101;115;14;0.730851599999369;3;0;88;0;Ozkirli & Pascucci (2023);Experiment 1;Orientation
4;67;66;-1;0.889208200000212;3;34;89;1;Ozkirli & Pascucci (2023);Experiment 1;Orientation
4;29;24;-5;0.531615600000805;3;38;90;1;Ozkirli & Pascucci (2023);Experiment 1;Orientation
4;68;57;-11;1.26493719999962;3;-39;91;0;Ozkirli & Pascucci (2023);Experiment 1;Orientation
4;47;59;12;0.65629330000047;3;21;92;1;Ozkirli & Pascucci (2023);Experiment 1;Orientation
4;166;138;-28;1.1555757999995;3;61;93;0;Ozkirli & Pascucci (2023);Experiment 1;Orientation
4;54;70;16;0.722484899999472;3;-68;94;0;Ozkirli & Pascucci (2023);Experiment 1;Orientation
4;141;128;-13;0.898509000000558;3;-87;95;0;Ozkirli & Pascucci (2023);Experiment 1;Orientation
4;143;137;-6;0.847412900000563;3;-2;96;0;Ozkirli & Pascucci (2023);Experiment 1;Orientation
4;120;116;-4;0.505702399999791;3;23;97;0;Ozkirli & Pascucci (2023);Experiment 1;Orientation
4;37;55;18;1.28915120000056;3;83;98;0;Ozkirli & Pascucci (2023);Experiment 1;Orientation
4;113;130;17;1.31412730000011;3;-76;99;0;Ozkirli & Pascucci (2023);Experiment 1;Orientation
4;41;55;14;0.947562899998957;3;72;100;1;Ozkirli & Pascucci (2023);Experiment 1;Orientation
4;147;153;6;0.889202600001227;3;74;101;0;Ozkirli & Pascucci (2023);Experiment 1;Orientation
4;15;20;5;1.8725742000006;3;-48;102;0;Ozkirli & Pascucci (2023);Experiment 1;Orientation
4;26;30;4;1.5891057000008;3;-11;103;1;Ozkirli & Pascucci (2023);Experiment 1;Orientation
4;48;52;4;1.18149959999937;3;-22;104;0;Ozkirli & Pascucci (2023);Experiment 1;Orientation
4;116;109;-7;0.798128000000361;3;-68;105;1;Ozkirli & Pascucci (2023);Experiment 1;Orientation
4;1;10;9;0.956160399999135;3;-65;106;0;Ozkirli & Pascucci (2023);Experiment 1;Orientation
4;95;100;5;0.747059399998761;3;86;107;0;Ozkirli & Pascucci (2023);Experiment 1;Orientation
4;111;107;-4;0.914187300000776;3;-16;108;0;Ozkirli & Pascucci (2023);Experiment 1;Orientation
4;69;66;-3;0.989422499998909;3;42;109;0;Ozkirli & Pascucci (2023);Experiment 1;Orientation
4;86;94;8;1.4558122999988;3;-17;110;1;Ozkirli & Pascucci (2023);Experiment 1;Orientation
4;119;116;-3;1.16412339999988;3;-33;111;0;Ozkirli & Pascucci (2023);Experiment 1;Orientation
4;96;104;8;1.47274870000001;3;23;112;0;Ozkirli & Pascucci (2023);Experiment 1;Orientation
4;16;44;28;3.31375879999905;3;80;113;1;Ozkirli & Pascucci (2023);Experiment 1;Orientation
4;28;35;7;0.955865300000369;3;-12;114;0;Ozkirli & Pascucci (2023);Experiment 1;Orientation
4;51;54;3;1.83113119999871;3;-23;115;0;Ozkirli & Pascucci (2023);Experiment 1;Orientation
4;37;37;0;1.59007109999948;3;14;116;0;Ozkirli & Pascucci (2023);Experiment 1;Orientation
4;157;157;0;1.24794240000119;3;60;117;1;Ozkirli & Pascucci (2023);Experiment 1;Orientation
4;109;106;-3;0.806180400000812;3;48;118;1;Ozkirli & Pascucci (2023);Experiment 1;Orientation
4;128;109;-19;0.872467999999571;3;-19;119;0;Ozkirli & Pascucci (2023);Experiment 1;Orientation
4;26;43;17;1.04770270000154;3;-78;120;0;Ozkirli & Pascucci (2023);Experiment 1;Orientation
4;78;79;1;0.830945499999871;4;-52;121;1;Ozkirli & Pascucci (2023);Experiment 1;Orientation
4;80;81;1;1.59740979999879;4;-2;122;0;Ozkirli & Pascucci (2023);Experiment 1;Orientation
4;105;94;-11;0.805867800001579;4;-25;123;1;Ozkirli & Pascucci (2023);Experiment 1;Orientation
4;45;54;9;0.581555900000239;4;60;124;0;Ozkirli & Pascucci (2023);Experiment 1;Orientation
4;165;151;-14;1.04783560000033;4;60;125;0;Ozkirli & Pascucci (2023);Experiment 1;Orientation
4;30;43;13;0.505990800000291;4;-45;126;1;Ozkirli & Pascucci (2023);Experiment 1;Orientation
4;158;133;-25;0.597376199999417;4;52;127;0;Ozkirli & Pascucci (2023);Experiment 1;Orientation
4;54;48;-6;0.830919399999402;4;-76;128;0;Ozkirli & Pascucci (2023);Experiment 1;Orientation
4;158;155;-3;1.07271940000101;4;76;129;1;Ozkirli & Pascucci (2023);Experiment 1;Orientation
4;94;87;-7;1.51459000000068;4;64;130;1;Ozkirli & Pascucci (2023);Experiment 1;Orientation
4;68;73;5;1.13080439999976;4;26;131;1;Ozkirli & Pascucci (2023);Experiment 1;Orientation
4;66;72;6;1.14750459999959;4;2;132;1;Ozkirli & Pascucci (2023);Experiment 1;Orientation
4;99;69;-30;0.68105579999974;4;-33;133;1;Ozkirli & Pascucci (2023);Experiment 1;Orientation
4;19;39;20;0.85532400000011;4;80;134;0;Ozkirli & Pascucci (2023);Experiment 1;Orientation
4;41;47;6;1.14748979999968;4;-22;135;0;Ozkirli & Pascucci (2023);Experiment 1;Orientation
4;50;43;-7;0.972788499999297;4;-9;136;0;Ozkirli & Pascucci (2023);Experiment 1;Orientation
4;18;14;-4;0.814202600000499;4;32;137;1;Ozkirli & Pascucci (2023);Experiment 1;Orientation
4;169;23;34;1.33945570000105;4;29;138;1;Ozkirli & Pascucci (2023);Experiment 1;Orientation
4;140;158;18;1.197572699999;4;29;139;1;Ozkirli & Pascucci (2023);Experiment 1;Orientation
4;141;160;19;1.39727130000028;4;-1;140;1;Ozkirli & Pascucci (2023);Experiment 1;Orientation
4;18;25;7;1.13975709999977;4;-57;141;1;Ozkirli & Pascucci (2023);Experiment 1;Orientation
4;55;46;-9;0.798051900001155;4;-37;142;1;Ozkirli & Pascucci (2023);Experiment 1;Orientation
4;73;64;-9;0.856545700000424;4;-18;143;0;Ozkirli & Pascucci (2023);Experiment 1;Orientation
4;162;152;-10;0.764323499999591;4;-89;144;1;Ozkirli & Pascucci (2023);Experiment 1;Orientation
4;33;44;11;0.914735899999869;4;-51;145;1;Ozkirli & Pascucci (2023);Experiment 1;Orientation
4;159;176;17;0.622945600000094;4;54;146;1;Ozkirli & Pascucci (2023);Experiment 1;Orientation
4;115;118;3;0.972484899999472;4;44;147;1;Ozkirli & Pascucci (2023);Experiment 1;Orientation
4;109;111;2;0.93104940000012;4;6;148;1;Ozkirli & Pascucci (2023);Experiment 1;Orientation
4;172;176;4;1.45626860000084;4;-63;149;0;Ozkirli & Pascucci (2023);Experiment 1;Orientation
4;62;57;-5;0.772714400000041;4;-70;150;0;Ozkirli & Pascucci (2023);Experiment 1;Orientation
4;48;48;0;1.27239720000034;4;14;151;1;Ozkirli & Pascucci (2023);Experiment 1;Orientation
4;131;137;6;1.33890760000031;4;-83;152;1;Ozkirli & Pascucci (2023);Experiment 1;Orientation
4;159;150;-9;0.648064599999998;4;-28;153;1;Ozkirli & Pascucci (2023);Experiment 1;Orientation
4;67;75;8;0.739230400000451;4;-88;154;1;Ozkirli & Pascucci (2023);Experiment 1;Orientation
4;63;76;13;0.922657800001616;4;4;155;1;Ozkirli & Pascucci (2023);Experiment 1;Orientation
4;167;161;-6;1.48044780000055;4;76;156;1;Ozkirli & Pascucci (2023);Experiment 1;Orientation
4;158;167;9;0.89724489999935;4;9;157;0;Ozkirli & Pascucci (2023);Experiment 1;Orientation
4;95;86;-9;0.747677999999723;4;63;158;1;Ozkirli & Pascucci (2023);Experiment 1;Orientation
4;143;162;19;0.747621600001366;4;-48;159;1;Ozkirli & Pascucci (2023);Experiment 1;Orientation
4;120;141;21;0.672493100000793;4;23;160;0;Ozkirli & Pascucci (2023);Experiment 1;Orientation
4;126;116;-10;0.856031200000871;5;-6;161;0;Ozkirli & Pascucci (2023);Experiment 1;Orientation
4;127;113;-14;0.714211900000009;5;-1;162;0;Ozkirli & Pascucci (2023);Experiment 1;Orientation
4;92;105;13;0.71497459999955;5;35;163;0;Ozkirli & Pascucci (2023);Experiment 1;Orientation
4;68;57;-11;0.889305900000181;5;24;164;0;Ozkirli & Pascucci (2023);Experiment 1;Orientation
4;54;64;10;1.21415720000005;5;14;165;0;Ozkirli & Pascucci (2023);Experiment 1;Orientation
4;112;95;-17;1.03934479999953;5;-58;166;1;Ozkirli & Pascucci (2023);Experiment 1;Orientation
4;140;144;4;1.02261369999906;5;-28;167;1;Ozkirli & Pascucci (2023);Experiment 1;Orientation
4;112;97;-15;0.914372000001094;5;28;168;1;Ozkirli & Pascucci (2023);Experiment 1;Orientation
4;142;144;2;0.506061000000045;5;-30;169;0;Ozkirli & Pascucci (2023);Experiment 1;Orientation
4;172;6;14;0.706597599999441;5;-30;170;1;Ozkirli & Pascucci (2023);Experiment 1;Orientation
4;70;65;-5;1.02221850000024;5;-78;171;0;Ozkirli & Pascucci (2023);Experiment 1;Orientation
4;11;27;16;0.94788520000111;5;59;172;1;Ozkirli & Pascucci (2023);Experiment 1;Orientation
4;103;104;1;0.497657399999298;5;88;173;0;Ozkirli & Pascucci (2023);Experiment 1;Orientation
4;28;26;-2;1.03086629999962;5;75;174;1;Ozkirli & Pascucci (2023);Experiment 1;Orientation
4;118;102;-16;1.12287200000173;5;-90;175;0;Ozkirli & Pascucci (2023);Experiment 1;Orientation
4;72;77;5;0.964287599999807;5;46;176;0;Ozkirli & Pascucci (2023);Experiment 1;Orientation
4;178;26;28;0.822625499999049;5;74;177;1;Ozkirli & Pascucci (2023);Experiment 1;Orientation
4;50;22;-28;1.43105990000004;5;-52;178;1;Ozkirli & Pascucci (2023);Experiment 1;Orientation
4;146;135;-11;0.639346600000863;5;84;179;0;Ozkirli & Pascucci (2023);Experiment 1;Orientation
4;57;69;12;1.07304120000117;5;89;180;1;Ozkirli & Pascucci (2023);Experiment 1;Orientation
4;27;33;6;1.11419199999909;5;30;181;0;Ozkirli & Pascucci (2023);Experiment 1;Orientation
4;90;76;-14;0.78150259999893;5;-63;182;0;Ozkirli & Pascucci (2023);Experiment 1;Orientation
4;114;111;-3;1.93071200000122;5;-24;183;0;Ozkirli & Pascucci (2023);Experiment 1;Orientation
4;100;108;8;1.04763939999975;5;14;184;1;Ozkirli & Pascucci (2023);Experiment 1;Orientation
4;152;149;-3;1.02250150000145;5;-52;185;0;Ozkirli & Pascucci (2023);Experiment 1;Orientation
4;89;76;-13;0.747755899999902;5;63;186;0;Ozkirli & Pascucci (2023);Experiment 1;Orientation
4;152;165;13;1.26415730000008;5;-63;187;1;Ozkirli & Pascucci (2023);Experiment 1;Orientation
4;112;100;-12;0.980328999999983;5;40;188;0;Ozkirli & Pascucci (2023);Experiment 1;Orientation
4;78;72;-6;0.964416900000288;5;34;189;1;Ozkirli & Pascucci (2023);Experiment 1;Orientation
4;103;99;-4;1.09760049999932;5;-25;190;0;Ozkirli & Pascucci (2023);Experiment 1;Orientation
4;162;171;9;0.889195899999322;5;-59;191;1;Ozkirli & Pascucci (2023);Experiment 1;Orientation
4;38;51;13;1.06417709999914;5;-56;192;0;Ozkirli & Pascucci (2023);Experiment 1;Orientation
4;147;143;-4;0.497662100000525;5;71;193;1;Ozkirli & Pascucci (2023);Experiment 1;Orientation
4;16;29;13;0.38163490000079;5;-49;194;1;Ozkirli & Pascucci (2023);Experiment 1;Orientation
4;83;80;-3;0.889329399999042;5;-67;195;0;Ozkirli & Pascucci (2023);Experiment 1;Orientation
4;165;19;34;1.88108939999984;5;-82;196;1;Ozkirli & Pascucci (2023);Experiment 1;Orientation
4;38;61;23;0.439288600000509;5;-53;197;0;Ozkirli & Pascucci (2023);Experiment 1;Orientation
4;46;52;6;0.597812600000907;5;-8;198;0;Ozkirli & Pascucci (2023);Experiment 1;Orientation
4;169;168;-1;0.423381200000222;5;57;199;1;Ozkirli & Pascucci (2023);Experiment 1;Orientation
4;164;172;8;0.422603799999706;5;5;200;1;Ozkirli & Pascucci (2023);Experiment 1;Orientation
4;138;128;-10;0.664597499999218;6;26;201;0;Ozkirli & Pascucci (2023);Experiment 1;Orientation
4;21;30;9;0.807428699999946;6;-63;202;0;Ozkirli & Pascucci (2023);Experiment 1;Orientation
4;47;78;31;0.922686599998997;6;-26;203;1;Ozkirli & Pascucci (2023);Experiment 1;Orientation
4;47;64;17;0.889077899999393;6;0;204;0;Ozkirli & Pascucci (2023);Experiment 1;Orientation
4;77;73;-4;1.22287920000053;6;-30;205;0;Ozkirli & Pascucci (2023);Experiment 1;Orientation
4;102;110;8;0.589473500000167;6;-25;206;0;Ozkirli & Pascucci (2023);Experiment 1;Orientation
4;171;11;20;1.40592199999992;6;-69;207;1;Ozkirli & Pascucci (2023);Experiment 1;Orientation
4;127;125;-2;1.27255479999985;6;44;208;0;Ozkirli & Pascucci (2023);Experiment 1;Orientation
4;154;163;9;1.03077680000024;6;-27;209;1;Ozkirli & Pascucci (2023);Experiment 1;Orientation
4;31;43;12;0.839187300000049;6;-57;210;1;Ozkirli & Pascucci (2023);Experiment 1;Orientation
4;153;161;8;0.772597000001042;6;58;211;0;Ozkirli & Pascucci (2023);Experiment 1;Orientation
4;165;165;0;1.05634280000049;6;-12;212;0;Ozkirli & Pascucci (2023);Experiment 1;Orientation
4;140;131;-9;1.11408089999895;6;25;213;0;Ozkirli & Pascucci (2023);Experiment 1;Orientation
4;29;54;25;0.497694300000148;6;-69;214;1;Ozkirli & Pascucci (2023);Experiment 1;Orientation
4;84;64;-20;0.806258399999933;6;-55;215;0;Ozkirli & Pascucci (2023);Experiment 1;Orientation
4;34;65;31;0.648139299999457;6;50;216;1;Ozkirli & Pascucci (2023);Experiment 1;Orientation
4;65;61;-4;1.05585380000048;6;-31;217;1;Ozkirli & Pascucci (2023);Experiment 1;Orientation
4;137;141;4;0.514252599999963;6;-72;218;0;Ozkirli & Pascucci (2023);Experiment 1;Orientation
4;11;19;8;0.722588699998596;6;-54;219;0;Ozkirli & Pascucci (2023);Experiment 1;Orientation
4;142;133;-9;0.681095199999618;6;49;220;1;Ozkirli & Pascucci (2023);Experiment 1;Orientation
4;162;13;31;0.980915300000561;6;-20;221;1;Ozkirli & Pascucci (2023);Experiment 1;Orientation
4;136;126;-10;0.830928900000799;6;26;222;0;Ozkirli & Pascucci (2023);Experiment 1;Orientation
4;164;164;0;0.69793220000065;6;-28;223;1;Ozkirli & Pascucci (2023);Experiment 1;Orientation
4;151;32;61;0.664889499999845;6;13;224;1;Ozkirli & Pascucci (2023);Experiment 1;Orientation
4;38;38;0;0.914521400000012;6;-67;225;1;Ozkirli & Pascucci (2023);Experiment 1;Orientation
4;61;45;-16;1.40580510000109;6;-23;226;0;Ozkirli & Pascucci (2023);Experiment 1;Orientation
4;145;154;9;0.647440700000516;6;-84;227;1;Ozkirli & Pascucci (2023);Experiment 1;Orientation
4;91;70;-21;0.689556400000583;6;54;228;1;Ozkirli & Pascucci (2023);Experiment 1;Orientation
4;166;162;-4;0.697608899999977;6;-75;229;0;Ozkirli & Pascucci (2023);Experiment 1;Orientation
4;128;117;-11;0.680893400000059;6;38;230;0;Ozkirli & Pascucci (2023);Experiment 1;Orientation
4;101;101;0;0.664812299999539;6;27;231;0;Ozkirli & Pascucci (2023);Experiment 1;Orientation
4;35;55;20;0.306523699999161;6;66;232;1;Ozkirli & Pascucci (2023);Experiment 1;Orientation
4;21;42;21;0.856153099999574;6;14;233;1;Ozkirli & Pascucci (2023);Experiment 1;Orientation
4;61;47;-14;0.689258699998391;6;-40;234;0;Ozkirli & Pascucci (2023);Experiment 1;Orientation
4;132;134;2;0.681028700000752;6;-71;235;0;Ozkirli & Pascucci (2023);Experiment 1;Orientation
4;127;126;-1;0.423017800001617;6;5;236;1;Ozkirli & Pascucci (2023);Experiment 1;Orientation
4;72;65;-7;1.37266389999968;6;55;237;0;Ozkirli & Pascucci (2023);Experiment 1;Orientation
4;17;23;6;0.747575499999584;6;55;238;0;Ozkirli & Pascucci (2023);Experiment 1;Orientation
4;131;128;-3;0.981313199999931;6;66;239;1;Ozkirli & Pascucci (2023);Experiment 1;Orientation
4;4;11;7;0.964383399999861;6;-53;240;1;Ozkirli & Pascucci (2023);Experiment 1;Orientation
4;108;110;2;0.639562999998816;7;76;241;1;Ozkirli & Pascucci (2023);Experiment 1;Orientation
4;127;124;-3;0.456222600001638;7;-19;242;1;Ozkirli & Pascucci (2023);Experiment 1;Orientation
4;11;33;22;0.639950799999497;7;-64;243;0;Ozkirli & Pascucci (2023);Experiment 1;Orientation
4;143;144;1;0.864209100000153;7;48;244;0;Ozkirli & Pascucci (2023);Experiment 1;Orientation
4;178;21;23;2.11404389999916;7;-35;245;1;Ozkirli & Pascucci (2023);Experiment 1;Orientation
4;90;75;-15;0.806415200000629;7;88;246;0;Ozkirli & Pascucci (2023);Experiment 1;Orientation
4;70;67;-3;1.04752149999877;7;20;247;0;Ozkirli & Pascucci (2023);Experiment 1;Orientation
4;177;168;-9;1.13918999999987;7;73;248;0;Ozkirli & Pascucci (2023);Experiment 1;Orientation
4;139;137;-2;0.831128899999385;7;38;249;1;Ozkirli & Pascucci (2023);Experiment 1;Orientation
4;141;143;2;0.972549699999945;7;-2;250;1;Ozkirli & Pascucci (2023);Experiment 1;Orientation
4;77;79;2;0.905896800000846;7;64;251;1;Ozkirli & Pascucci (2023);Experiment 1;Orientation
4;30;32;2;0.922604300001694;7;47;252;0;Ozkirli & Pascucci (2023);Experiment 1;Orientation
4;33;32;-1;1.0892455000012;7;-3;253;0;Ozkirli & Pascucci (2023);Experiment 1;Orientation
4;129;130;1;1.1644436000006;7;84;254;0;Ozkirli & Pascucci (2023);Experiment 1;Orientation
4;105;109;4;1.08992819999912;7;24;255;0;Ozkirli & Pascucci (2023);Experiment 1;Orientation
4;72;46;-26;1.25589410000066;7;33;256;1;Ozkirli & Pascucci (2023);Experiment 1;Orientation
4;53;59;6;0.555892599999424;7;19;257;1;Ozkirli & Pascucci (2023);Experiment 1;Orientation
4;12;12;0;0.656087600000319;7;41;258;0;Ozkirli & Pascucci (2023);Experiment 1;Orientation
4;172;159;-13;0.89809029999924;7;20;259;0;Ozkirli & Pascucci (2023);Experiment 1;Orientation
4;17;32;15;0.939257699999871;7;-25;260;0;Ozkirli & Pascucci (2023);Experiment 1;Orientation
4;168;162;-6;1.34754969999995;7;29;261;0;Ozkirli & Pascucci (2023);Experiment 1;Orientation
4;20;28;8;0.597470000000612;7;-32;262;0;Ozkirli & Pascucci (2023);Experiment 1;Orientation
4;148;146;-2;0.897496599998703;7;52;263;0;Ozkirli & Pascucci (2023);Experiment 1;Orientation
4;76;79;3;1.06413790000079;7;72;264;1;Ozkirli & Pascucci (2023);Experiment 1;Orientation
4;53;66;13;1.37246039999991;7;23;265;1;Ozkirli & Pascucci (2023);Experiment 1;Orientation
4;75;83;8;0.997935200000938;7;-22;266;1;Ozkirli & Pascucci (2023);Experiment 1;Orientation
4;35;59;24;0.973165999999765;7;40;267;1;Ozkirli & Pascucci (2023);Experiment 1;Orientation
4;77;69;-8;0.890814000000319;7;-42;268;0;Ozkirli & Pascucci (2023);Experiment 1;Orientation
4;142;145;3;0.890524700000242;7;-65;269;1;Ozkirli & Pascucci (2023);Experiment 1;Orientation
4;126;128;2;0.939215200000035;7;16;270;0;Ozkirli & Pascucci (2023);Experiment 1;Orientation
4;11;20;9;0.906058200000189;7;-65;271;1;Ozkirli & Pascucci (2023);Experiment 1;Orientation
4;131;132;1;1.17227450000064;7;60;272;0;Ozkirli & Pascucci (2023);Experiment 1;Orientation
4;53;51;-2;0.539368199999444;7;78;273;1;Ozkirli & Pascucci (2023);Experiment 1;Orientation
4;175;171;-4;0.714227500000561;7;58;274;0;Ozkirli & Pascucci (2023);Experiment 1;Orientation
4;76;75;-1;0.972387300000264;7;-81;275;0;Ozkirli & Pascucci (2023);Experiment 1;Orientation
4;165;152;-13;0.623306499999671;7;-89;276;0;Ozkirli & Pascucci (2023);Experiment 1;Orientation
4;172;177;5;0.597508900000321;7;-7;277;0;Ozkirli & Pascucci (2023);Experiment 1;Orientation
4;58;65;7;0.689179299999523;7;-66;278;0;Ozkirli & Pascucci (2023);Experiment 1;Orientation
4;167;168;1;0.431226499998957;7;71;279;1;Ozkirli & Pascucci (2023);Experiment 1;Orientation
4;93;87;-6;0.781413900000189;7;74;280;1;Ozkirli & Pascucci (2023);Experiment 1;Orientation
4;47;75;28;1.0645026000002;8;46;281;1;Ozkirli & Pascucci (2023);Experiment 1;Orientation
4;26;45;19;0.922541699999783;8;21;282;1;Ozkirli & Pascucci (2023);Experiment 1;Orientation
4;64;66;2;1.51451550000093;8;-38;283;0;Ozkirli & Pascucci (2023);Experiment 1;Orientation
4;105;68;-37;1.23134089999985;8;-41;284;0;Ozkirli & Pascucci (2023);Experiment 1;Orientation
4;56;68;12;0.556618000000526;8;49;285;1;Ozkirli & Pascucci (2023);Experiment 1;Orientation
4;53;61;8;0.822441100001015;8;3;286;0;Ozkirli & Pascucci (2023);Experiment 1;Orientation
4;12;159;-33;0.947584699999425;8;41;287;1;Ozkirli & Pascucci (2023);Experiment 1;Orientation
4;20;21;1;0.622585400000389;8;-8;288;0;Ozkirli & Pascucci (2023);Experiment 1;Orientation
4;144;174;30;2.28940520000106;8;56;289;1;Ozkirli & Pascucci (2023);Experiment 1;Orientation
4;91;74;-17;0.655923000000257;8;53;290;1;Ozkirli & Pascucci (2023);Experiment 1;Orientation
4;145;143;-2;0.555742199998349;8;-54;291;1;Ozkirli & Pascucci (2023);Experiment 1;Orientation
4;40;46;6;0.756288100001257;8;-75;292;0;Ozkirli & Pascucci (2023);Experiment 1;Orientation
4;133;118;-15;0.705966800000169;8;87;293;1;Ozkirli & Pascucci (2023);Experiment 1;Orientation
4;33;58;25;0.706003499999497;8;-80;294;0;Ozkirli & Pascucci (2023);Experiment 1;Orientation
4;103;108;5;0.93093029999909;8;-70;295;1;Ozkirli & Pascucci (2023);Experiment 1;Orientation
4;91;107;16;0.605912200000603;8;12;296;1;Ozkirli & Pascucci (2023);Experiment 1;Orientation
4;139;151;12;0.839301799998793;8;-48;297;1;Ozkirli & Pascucci (2023);Experiment 1;Orientation
4;127;138;11;0.455880899999102;8;12;298;0;Ozkirli & Pascucci (2023);Experiment 1;Orientation
4;136;150;14;0.564367799999673;8;-9;299;1;Ozkirli & Pascucci (2023);Experiment 1;Orientation
4;66;80;14;0.580898199999865;8;70;300;1;Ozkirli & Pascucci (2023);Experiment 1;Orientation
4;118;114;-4;0.614211300000534;8;-52;301;1;Ozkirli & Pascucci (2023);Experiment 1;Orientation
4;159;155;-4;0.730947600000945;8;-41;302;0;Ozkirli & Pascucci (2023);Experiment 1;Orientation
4;97;93;-4;1.52246159999959;8;62;303;1;Ozkirli & Pascucci (2023);Experiment 1;Orientation
4;121;123;2;0.631002600001011;8;-24;304;1;Ozkirli & Pascucci (2023);Experiment 1;Orientation
4;149;156;7;0.780983800001195;8;-28;305;1;Ozkirli & Pascucci (2023);Experiment 1;Orientation
4;164;170;6;1.65543969999999;8;-15;306;0;Ozkirli & Pascucci (2023);Experiment 1;Orientation
4;18;16;-2;0.422579200001564;8;-34;307;0;Ozkirli & Pascucci (2023);Experiment 1;Orientation
4;60;80;20;0.90596639999967;8;-42;308;1;Ozkirli & Pascucci (2023);Experiment 1;Orientation
4;67;87;20;0.480892999999924;8;-7;309;1;Ozkirli & Pascucci (2023);Experiment 1;Orientation
4;138;143;5;0.805897800000821;8;-71;310;1;Ozkirli & Pascucci (2023);Experiment 1;Orientation
4;40;59;19;0.822534899998573;8;-82;311;0;Ozkirli & Pascucci (2023);Experiment 1;Orientation
4;118;122;4;0.705984899999748;8;-78;312;1;Ozkirli & Pascucci (2023);Experiment 1;Orientation
4;131;131;0;1.00620640000125;8;-13;313;0;Ozkirli & Pascucci (2023);Experiment 1;Orientation
4;10;12;2;0.864189500000066;8;-59;314;0;Ozkirli & Pascucci (2023);Experiment 1;Orientation
4;135;129;-6;0.873090099999899;8;55;315;0;Ozkirli & Pascucci (2023);Experiment 1;Orientation
4;157;152;-5;0.564845900000364;8;-22;316;1;Ozkirli & Pascucci (2023);Experiment 1;Orientation
4;1;3;2;0.614611299999524;8;-24;317;0;Ozkirli & Pascucci (2023);Experiment 1;Orientation
4;72;75;3;0.756073599999581;8;-71;318;0;Ozkirli & Pascucci (2023);Experiment 1;Orientation
