obs;theta;resp;error;rt;block;delta;trial;cond;study;experiment;stimulus
2;175;32;37;1.15668869996443;1;NaN;1;0;Ozkirli & Pascucci (2023);Experiment 3;Orientation
2;22;48;26;1.59037659969181;1;-27;2;0;Ozkirli & Pascucci (2023);Experiment 3;Orientation
2;16;1;-15;1.03274749964476;1;6;3;0;Ozkirli & Pascucci (2023);Experiment 3;Orientation
2;50;60;10;1.47171160019934;1;-34;4;0;Ozkirli & Pascucci (2023);Experiment 3;Orientation
2;68;50;-18;1.24036369984969;1;-18;5;0;Ozkirli & Pascucci (2023);Experiment 3;Orientation
2;49;53;4;1.31501589994878;1;19;6;0;Ozkirli & Pascucci (2023);Experiment 3;Orientation
2;120;106;-14;1.7318282998167;1;-71;7;0;Ozkirli & Pascucci (2023);Experiment 3;Orientation
2;14;10;-4;1.25664920033887;1;-74;8;0;Ozkirli & Pascucci (2023);Experiment 3;Orientation
2;91;89;-2;1.14839809993282;1;-77;9;0;Ozkirli & Pascucci (2023);Experiment 3;Orientation
2;42;173;-49;0.97387359989807;1;49;10;0;Ozkirli & Pascucci (2023);Experiment 3;Orientation
2;14;5;-9;1.07354710018262;1;28;11;0;Ozkirli & Pascucci (2023);Experiment 3;Orientation
2;179;167;-12;1.10680959979072;1;15;12;0;Ozkirli & Pascucci (2023);Experiment 3;Orientation
2;69;54;-15;1.13146519986913;1;-70;13;0;Ozkirli & Pascucci (2023);Experiment 3;Orientation
2;167;158;-9;1.54010439990088;1;82;14;0;Ozkirli & Pascucci (2023);Experiment 3;Orientation
2;168;160;-8;1.58137740008533;1;-1;15;0;Ozkirli & Pascucci (2023);Experiment 3;Orientation
2;130;124;-6;2.53983969986439;1;38;16;0;Ozkirli & Pascucci (2023);Experiment 3;Orientation
2;172;14;22;0.914691300131381;1;-42;17;0;Ozkirli & Pascucci (2023);Experiment 3;Orientation
2;42;23;-19;1.43260140018538;1;-50;18;0;Ozkirli & Pascucci (2023);Experiment 3;Orientation
2;5;27;22;0.915058099664748;1;37;19;0;Ozkirli & Pascucci (2023);Experiment 3;Orientation
2;161;162;1;1.50671559991315;1;24;20;0;Ozkirli & Pascucci (2023);Experiment 3;Orientation
2;130;162;32;0.682113899849355;1;31;21;0;Ozkirli & Pascucci (2023);Experiment 3;Orientation
2;118;104;-14;0.856746600009501;1;12;22;0;Ozkirli & Pascucci (2023);Experiment 3;Orientation
2;137;117;-20;0.87379560014233;1;-19;23;0;Ozkirli & Pascucci (2023);Experiment 3;Orientation
2;119;116;-3;1.10681440029293;1;18;24;0;Ozkirli & Pascucci (2023);Experiment 3;Orientation
2;31;23;-8;1.79840310011059;1;88;25;0;Ozkirli & Pascucci (2023);Experiment 3;Orientation
2;105;79;-26;0.765257600229234;1;-74;26;0;Ozkirli & Pascucci (2023);Experiment 3;Orientation
2;65;63;-2;1.04839579993859;1;40;27;0;Ozkirli & Pascucci (2023);Experiment 3;Orientation
2;48;52;4;0.981401499826461;1;17;28;0;Ozkirli & Pascucci (2023);Experiment 3;Orientation
2;145;135;-10;0.948365200310946;1;83;29;0;Ozkirli & Pascucci (2023);Experiment 3;Orientation
2;172;13;21;1.14012480014935;1;-27;30;0;Ozkirli & Pascucci (2023);Experiment 3;Orientation
2;13;17;4;0.956805299967527;1;-21;31;0;Ozkirli & Pascucci (2023);Experiment 3;Orientation
2;27;36;9;1.33992079971358;1;-14;32;0;Ozkirli & Pascucci (2023);Experiment 3;Orientation
2;37;34;-3;1.12337950011715;1;-10;33;0;Ozkirli & Pascucci (2023);Experiment 3;Orientation
2;142;125;-17;2.6398797002621;1;75;34;0;Ozkirli & Pascucci (2023);Experiment 3;Orientation
2;24;31;7;1.15801330003887;1;-62;35;0;Ozkirli & Pascucci (2023);Experiment 3;Orientation
2;58;52;-6;0.765084099955857;1;-34;36;0;Ozkirli & Pascucci (2023);Experiment 3;Orientation
2;159;166;7;1.23990350030363;1;79;37;0;Ozkirli & Pascucci (2023);Experiment 3;Orientation
2;33;46;13;0.940097299870104;1;-54;38;0;Ozkirli & Pascucci (2023);Experiment 3;Orientation
2;54;61;7;1.1232666997239;1;-21;39;0;Ozkirli & Pascucci (2023);Experiment 3;Orientation
2;127;118;-9;1.50645660003647;1;-73;40;0;Ozkirli & Pascucci (2023);Experiment 3;Orientation
2;65;54;-11;1.43175360001624;1;62;41;0;Ozkirli & Pascucci (2023);Experiment 3;Orientation
2;116;118;2;0.78214620007202;1;-51;42;0;Ozkirli & Pascucci (2023);Experiment 3;Orientation
2;43;36;-7;1.14007360022515;1;73;43;0;Ozkirli & Pascucci (2023);Experiment 3;Orientation
2;70;74;4;0.823506200220436;1;-27;44;0;Ozkirli & Pascucci (2023);Experiment 3;Orientation
2;28;27;-1;1.53173450008035;1;42;45;0;Ozkirli & Pascucci (2023);Experiment 3;Orientation
2;33;35;2;1.20674470020458;1;-5;46;0;Ozkirli & Pascucci (2023);Experiment 3;Orientation
2;15;4;-11;0.840468500275165;1;18;47;0;Ozkirli & Pascucci (2023);Experiment 3;Orientation
2;114;118;4;1.33196659991518;1;81;48;0;Ozkirli & Pascucci (2023);Experiment 3;Orientation
2;84;77;-7;1.33188749989495;1;30;49;0;Ozkirli & Pascucci (2023);Experiment 3;Orientation
2;138;109;-29;1.13181449985132;1;-54;50;0;Ozkirli & Pascucci (2023);Experiment 3;Orientation
2;139;112;-27;1.04116329969838;1;-1;51;0;Ozkirli & Pascucci (2023);Experiment 3;Orientation
2;12;10;-2;1.30678440025076;1;-53;52;0;Ozkirli & Pascucci (2023);Experiment 3;Orientation
2;111;101;-10;1.07345480006188;1;81;53;0;Ozkirli & Pascucci (2023);Experiment 3;Orientation
2;96;78;-18;1.30677289981395;1;15;54;0;Ozkirli & Pascucci (2023);Experiment 3;Orientation
2;7;1;-6;1.29007870005444;1;89;55;0;Ozkirli & Pascucci (2023);Experiment 3;Orientation
2;33;18;-15;0.690189899876714;1;-26;56;0;Ozkirli & Pascucci (2023);Experiment 3;Orientation
2;76;60;-16;1.4650177997537;1;-43;57;0;Ozkirli & Pascucci (2023);Experiment 3;Orientation
2;17;13;-4;1.05675589991733;1;59;58;0;Ozkirli & Pascucci (2023);Experiment 3;Orientation
2;151;148;-3;1.2734257997945;1;46;59;0;Ozkirli & Pascucci (2023);Experiment 3;Orientation
2;104;96;-8;1.33999440027401;1;47;60;0;Ozkirli & Pascucci (2023);Experiment 3;Orientation
2;111;107;-4;1.04838499985635;1;-7;61;0;Ozkirli & Pascucci (2023);Experiment 3;Orientation
2;144;172;28;1.00685530016199;1;-33;62;0;Ozkirli & Pascucci (2023);Experiment 3;Orientation
2;168;164;-4;1.29846680024639;1;-24;63;0;Ozkirli & Pascucci (2023);Experiment 3;Orientation
2;53;16;-37;0.706797800026834;1;-65;64;0;Ozkirli & Pascucci (2023);Experiment 3;Orientation
2;178;171;-7;0.806790600065142;1;55;65;0;Ozkirli & Pascucci (2023);Experiment 3;Orientation
2;175;170;-5;1.52333410037681;1;3;66;0;Ozkirli & Pascucci (2023);Experiment 3;Orientation
2;24;51;27;1.04842109978199;1;-29;67;0;Ozkirli & Pascucci (2023);Experiment 3;Orientation
2;94;76;-18;1.18969220016152;1;-70;68;0;Ozkirli & Pascucci (2023);Experiment 3;Orientation
2;131;132;1;1.23974890029058;1;-37;69;0;Ozkirli & Pascucci (2023);Experiment 3;Orientation
2;80;78;-2;0.940126900095493;1;51;70;0;Ozkirli & Pascucci (2023);Experiment 3;Orientation
2;65;65;0;1.16513750003651;1;15;71;0;Ozkirli & Pascucci (2023);Experiment 3;Orientation
2;135;116;-19;1.11514039989561;1;-70;72;0;Ozkirli & Pascucci (2023);Experiment 3;Orientation
2;125;147;22;1.04848179966211;1;10;73;0;Ozkirli & Pascucci (2023);Experiment 3;Orientation
2;167;132;-35;0.923615799751133;1;-42;74;0;Ozkirli & Pascucci (2023);Experiment 3;Orientation
2;138;122;-16;1.19839600007981;1;29;75;0;Ozkirli & Pascucci (2023);Experiment 3;Orientation
2;71;69;-2;1.1565836998634;1;67;76;0;Ozkirli & Pascucci (2023);Experiment 3;Orientation
2;3;6;3;1.17372850002721;1;68;77;0;Ozkirli & Pascucci (2023);Experiment 3;Orientation
2;170;172;2;0.798419900238514;1;13;78;0;Ozkirli & Pascucci (2023);Experiment 3;Orientation
2;118;117;-1;2.66492500016466;1;52;79;0;Ozkirli & Pascucci (2023);Experiment 3;Orientation
2;78;123;45;0.731767399702221;1;40;80;0;Ozkirli & Pascucci (2023);Experiment 3;Orientation
2;22;23;1;1.44831830030307;1;56;81;0;Ozkirli & Pascucci (2023);Experiment 3;Orientation
2;37;38;1;1.07373819965869;1;-15;82;0;Ozkirli & Pascucci (2023);Experiment 3;Orientation
2;16;21;5;0.940408000256866;1;21;83;0;Ozkirli & Pascucci (2023);Experiment 3;Orientation
2;100;96;-4;0.823441199958324;1;-84;84;0;Ozkirli & Pascucci (2023);Experiment 3;Orientation
2;125;99;-26;0.73181870020926;1;-25;85;0;Ozkirli & Pascucci (2023);Experiment 3;Orientation
2;79;75;-4;1.14004940027371;1;46;86;0;Ozkirli & Pascucci (2023);Experiment 3;Orientation
2;31;22;-9;1.09011750016361;1;48;87;0;Ozkirli & Pascucci (2023);Experiment 3;Orientation
2;134;123;-11;0.790176200214773;1;77;88;0;Ozkirli & Pascucci (2023);Experiment 3;Orientation
2;174;168;-6;1.33170859981328;1;-40;89;0;Ozkirli & Pascucci (2023);Experiment 3;Orientation
2;115;92;-23;1.31488690013066;1;59;90;0;Ozkirli & Pascucci (2023);Experiment 3;Orientation
2;121;120;-1;0.90669950004667;1;-6;91;0;Ozkirli & Pascucci (2023);Experiment 3;Orientation
2;18;26;8;1.20677279960364;1;-77;92;0;Ozkirli & Pascucci (2023);Experiment 3;Orientation
2;106;100;-6;0.897957999724895;1;-88;93;0;Ozkirli & Pascucci (2023);Experiment 3;Orientation
2;175;179;4;1.48181900009513;1;-69;94;0;Ozkirli & Pascucci (2023);Experiment 3;Orientation
2;133;130;-3;0.815378199797124;1;42;95;0;Ozkirli & Pascucci (2023);Experiment 3;Orientation
2;66;54;-12;1.16508690034971;1;67;96;0;Ozkirli & Pascucci (2023);Experiment 3;Orientation
2;64;62;-2;0.773500700015575;1;2;97;0;Ozkirli & Pascucci (2023);Experiment 3;Orientation
2;150;135;-15;1.19845070037991;1;-86;98;0;Ozkirli & Pascucci (2023);Experiment 3;Orientation
2;43;60;17;1.30665929988027;1;-73;99;0;Ozkirli & Pascucci (2023);Experiment 3;Orientation
2;89;87;-2;0.990124499890953;1;-46;100;0;Ozkirli & Pascucci (2023);Experiment 3;Orientation
2;119;104;-15;1.86488249991089;2;-30;101;1;Ozkirli & Pascucci (2023);Experiment 3;Orientation
2;133;121;-12;0.598583499900997;2;-14;102;1;Ozkirli & Pascucci (2023);Experiment 3;Orientation
2;73;69;-4;0.973420000169426;2;60;103;1;Ozkirli & Pascucci (2023);Experiment 3;Orientation
2;72;65;-7;1.30672820005566;2;1;104;1;Ozkirli & Pascucci (2023);Experiment 3;Orientation
2;119;106;-13;1.03186189988628;2;-47;105;1;Ozkirli & Pascucci (2023);Experiment 3;Orientation
2;26;31;5;1.24016479961574;2;-87;106;1;Ozkirli & Pascucci (2023);Experiment 3;Orientation
2;139;105;-34;1.1897264001891;2;67;107;1;Ozkirli & Pascucci (2023);Experiment 3;Orientation
2;35;32;-3;1.19844369962811;2;-76;108;1;Ozkirli & Pascucci (2023);Experiment 3;Orientation
2;16;24;8;0.798427799716592;2;19;109;1;Ozkirli & Pascucci (2023);Experiment 3;Orientation
2;122;109;-13;1.27342629991472;2;74;110;1;Ozkirli & Pascucci (2023);Experiment 3;Orientation
2;135;131;-4;0.906400000210851;2;-13;111;1;Ozkirli & Pascucci (2023);Experiment 3;Orientation
2;137;125;-12;0.581035599578172;2;-2;112;1;Ozkirli & Pascucci (2023);Experiment 3;Orientation
2;63;44;-19;0.790147299878299;2;74;113;1;Ozkirli & Pascucci (2023);Experiment 3;Orientation
2;10;12;2;0.781866900157183;2;53;114;1;Ozkirli & Pascucci (2023);Experiment 3;Orientation
2;168;152;-16;0.856838599778712;2;22;115;1;Ozkirli & Pascucci (2023);Experiment 3;Orientation
2;17;178;-19;0.831731299869716;2;-29;116;1;Ozkirli & Pascucci (2023);Experiment 3;Orientation
2;138;152;14;1.09007370006293;2;59;117;1;Ozkirli & Pascucci (2023);Experiment 3;Orientation
2;122;115;-7;0.989954300224781;2;16;118;1;Ozkirli & Pascucci (2023);Experiment 3;Orientation
2;69;60;-9;1.35706340009347;2;53;119;1;Ozkirli & Pascucci (2023);Experiment 3;Orientation
2;162;167;5;0.665160400327295;2;87;120;1;Ozkirli & Pascucci (2023);Experiment 3;Orientation
2;7;161;-26;0.965051799546927;2;-25;121;1;Ozkirli & Pascucci (2023);Experiment 3;Orientation
2;119;117;-2;1.29011670034379;2;68;122;1;Ozkirli & Pascucci (2023);Experiment 3;Orientation
2;91;51;-40;1.33136599976569;2;28;123;1;Ozkirli & Pascucci (2023);Experiment 3;Orientation
2;136;122;-14;1.05781689984724;2;-45;124;1;Ozkirli & Pascucci (2023);Experiment 3;Orientation
2;43;51;8;0.848508299794048;2;-87;125;1;Ozkirli & Pascucci (2023);Experiment 3;Orientation
2;103;93;-10;0.831812900025398;2;-60;126;1;Ozkirli & Pascucci (2023);Experiment 3;Orientation
2;78;66;-12;1.14828549977392;2;25;127;1;Ozkirli & Pascucci (2023);Experiment 3;Orientation
2;26;35;9;1.14850809983909;2;52;128;1;Ozkirli & Pascucci (2023);Experiment 3;Orientation
2;76;86;10;1.34010840021074;2;-50;129;1;Ozkirli & Pascucci (2023);Experiment 3;Orientation
2;137;122;-15;0.948420600034297;2;-61;130;1;Ozkirli & Pascucci (2023);Experiment 3;Orientation
2;79;68;-11;1.24847749993205;2;58;131;1;Ozkirli & Pascucci (2023);Experiment 3;Orientation
2;107;84;-23;0.931870699860156;2;-28;132;1;Ozkirli & Pascucci (2023);Experiment 3;Orientation
2;52;50;-2;1.44016780005768;2;55;133;1;Ozkirli & Pascucci (2023);Experiment 3;Orientation
2;112;113;1;0.58183419983834;2;-60;134;1;Ozkirli & Pascucci (2023);Experiment 3;Orientation
2;117;102;-15;1.29000800009817;2;-5;135;1;Ozkirli & Pascucci (2023);Experiment 3;Orientation
2;6;9;3;0.790228100027889;2;-69;136;1;Ozkirli & Pascucci (2023);Experiment 3;Orientation
2;138;128;-10;1.19842269970104;2;48;137;1;Ozkirli & Pascucci (2023);Experiment 3;Orientation
2;116;102;-14;1.34838439989835;2;22;138;1;Ozkirli & Pascucci (2023);Experiment 3;Orientation
2;164;163;-1;0.798509600106627;2;-48;139;1;Ozkirli & Pascucci (2023);Experiment 3;Orientation
2;93;74;-19;1.05674039991572;2;71;140;1;Ozkirli & Pascucci (2023);Experiment 3;Orientation
2;89;83;-6;0.956785900052637;2;4;141;1;Ozkirli & Pascucci (2023);Experiment 3;Orientation
2;165;169;4;0.906637900043279;2;-76;142;1;Ozkirli & Pascucci (2023);Experiment 3;Orientation
2;117;94;-23;1.05670299986377;2;48;143;1;Ozkirli & Pascucci (2023);Experiment 3;Orientation
2;46;46;0;0.881746700033545;2;71;144;1;Ozkirli & Pascucci (2023);Experiment 3;Orientation
2;2;17;15;1.11503200000152;2;44;145;1;Ozkirli & Pascucci (2023);Experiment 3;Orientation
2;113;114;1;1.09829400014132;2;69;146;1;Ozkirli & Pascucci (2023);Experiment 3;Orientation
2;84;80;-4;0.906921300105751;2;29;147;1;Ozkirli & Pascucci (2023);Experiment 3;Orientation
2;82;63;-19;0.790185000281781;2;2;148;1;Ozkirli & Pascucci (2023);Experiment 3;Orientation
2;1;177;-4;1.0567568000406;2;81;149;1;Ozkirli & Pascucci (2023);Experiment 3;Orientation
2;19;0;-19;0.973305399995297;2;-18;150;1;Ozkirli & Pascucci (2023);Experiment 3;Orientation
2;119;134;15;0.765321099665016;2;80;151;1;Ozkirli & Pascucci (2023);Experiment 3;Orientation
2;143;132;-11;1.2233921000734;2;-24;152;1;Ozkirli & Pascucci (2023);Experiment 3;Orientation
2;118;63;-55;0.773446899838746;2;25;153;1;Ozkirli & Pascucci (2023);Experiment 3;Orientation
2;113;104;-9;1.8482379000634;2;5;154;1;Ozkirli & Pascucci (2023);Experiment 3;Orientation
2;136;116;-20;0.823495599906892;2;-23;155;1;Ozkirli & Pascucci (2023);Experiment 3;Orientation
2;143;128;-15;1.06475909985602;2;-7;156;1;Ozkirli & Pascucci (2023);Experiment 3;Orientation
2;170;173;3;0.940149199683219;2;-27;157;1;Ozkirli & Pascucci (2023);Experiment 3;Orientation
2;57;41;-16;0.731801200192422;2;-67;158;1;Ozkirli & Pascucci (2023);Experiment 3;Orientation
2;97;76;-21;0.848514100071043;2;-40;159;1;Ozkirli & Pascucci (2023);Experiment 3;Orientation
2;81;84;3;0.948419900145382;2;16;160;1;Ozkirli & Pascucci (2023);Experiment 3;Orientation
2;88;80;-8;0.798717299941927;2;-7;161;1;Ozkirli & Pascucci (2023);Experiment 3;Orientation
2;102;98;-4;1.0901726000011;2;-14;162;1;Ozkirli & Pascucci (2023);Experiment 3;Orientation
2;102;81;-21;1.54006919963285;2;0;163;1;Ozkirli & Pascucci (2023);Experiment 3;Orientation
2;104;82;-22;1.02343899989501;2;-2;164;1;Ozkirli & Pascucci (2023);Experiment 3;Orientation
2;22;11;-11;1.31503959977999;2;82;165;1;Ozkirli & Pascucci (2023);Experiment 3;Orientation
2;150;161;11;0.498529999982566;2;52;166;1;Ozkirli & Pascucci (2023);Experiment 3;Orientation
2;134;104;-30;1.03177260002121;2;16;167;1;Ozkirli & Pascucci (2023);Experiment 3;Orientation
2;143;140;-3;1.3483862997964;2;-9;168;1;Ozkirli & Pascucci (2023);Experiment 3;Orientation
2;46;36;-10;0.98177790036425;2;-83;169;1;Ozkirli & Pascucci (2023);Experiment 3;Orientation
2;122;98;-24;0.897970499936491;2;-76;170;1;Ozkirli & Pascucci (2023);Experiment 3;Orientation
2;88;75;-13;1.08188559999689;2;34;171;1;Ozkirli & Pascucci (2023);Experiment 3;Orientation
2;104;104;0;1.30682960012928;2;-16;172;1;Ozkirli & Pascucci (2023);Experiment 3;Orientation
2;161;159;-2;1.17342669982463;2;-57;173;1;Ozkirli & Pascucci (2023);Experiment 3;Orientation
2;59;49;-10;0.923410299699754;2;-78;174;1;Ozkirli & Pascucci (2023);Experiment 3;Orientation
2;143;144;1;0.765114399604499;2;-84;175;1;Ozkirli & Pascucci (2023);Experiment 3;Orientation
2;46;32;-14;1.12334259971976;2;-83;176;1;Ozkirli & Pascucci (2023);Experiment 3;Orientation
2;154;150;-4;0.940089600160718;2;72;177;1;Ozkirli & Pascucci (2023);Experiment 3;Orientation
2;108;99;-9;0.906699900049716;2;46;178;1;Ozkirli & Pascucci (2023);Experiment 3;Orientation
2;156;145;-11;0.690101500134915;2;-48;179;1;Ozkirli & Pascucci (2023);Experiment 3;Orientation
2;137;147;10;0.523544699884951;2;19;180;1;Ozkirli & Pascucci (2023);Experiment 3;Orientation
2;56;55;-1;0.59022290026769;2;81;181;1;Ozkirli & Pascucci (2023);Experiment 3;Orientation
2;105;89;-16;1.09855919983238;2;-49;182;1;Ozkirli & Pascucci (2023);Experiment 3;Orientation
2;99;81;-18;1.12340710032731;2;6;183;1;Ozkirli & Pascucci (2023);Experiment 3;Orientation
2;89;70;-19;1.38156070001423;2;10;184;1;Ozkirli & Pascucci (2023);Experiment 3;Orientation
2;137;144;7;0.906731800176203;2;-48;185;1;Ozkirli & Pascucci (2023);Experiment 3;Orientation
2;44;30;-14;1.06513639958575;2;-87;186;1;Ozkirli & Pascucci (2023);Experiment 3;Orientation
2;77;73;-4;1.36510289972648;2;-33;187;1;Ozkirli & Pascucci (2023);Experiment 3;Orientation
2;46;40;-6;0.70677819987759;2;31;188;1;Ozkirli & Pascucci (2023);Experiment 3;Orientation
2;159;158;-1;0.9900202001445;2;67;189;1;Ozkirli & Pascucci (2023);Experiment 3;Orientation
2;87;77;-10;1.04849319998175;2;72;190;1;Ozkirli & Pascucci (2023);Experiment 3;Orientation
2;81;90;9;1.08175250003114;2;6;191;1;Ozkirli & Pascucci (2023);Experiment 3;Orientation
2;53;28;-25;0.673824999947101;2;28;192;1;Ozkirli & Pascucci (2023);Experiment 3;Orientation
2;21;5;-16;0.839980300050229;2;32;193;1;Ozkirli & Pascucci (2023);Experiment 3;Orientation
2;3;15;12;0.781707100104541;2;18;194;1;Ozkirli & Pascucci (2023);Experiment 3;Orientation
2;55;66;11;0.956850500311702;2;-52;195;1;Ozkirli & Pascucci (2023);Experiment 3;Orientation
2;148;143;-5;0.939697000198066;2;87;196;1;Ozkirli & Pascucci (2023);Experiment 3;Orientation
2;25;19;-6;0.523512800224125;2;-57;197;1;Ozkirli & Pascucci (2023);Experiment 3;Orientation
2;165;171;6;0.84025330003351;2;40;198;1;Ozkirli & Pascucci (2023);Experiment 3;Orientation
2;43;43;0;0.648810600396246;2;-58;199;1;Ozkirli & Pascucci (2023);Experiment 3;Orientation
2;72;66;-6;0.815071700140834;2;-29;200;1;Ozkirli & Pascucci (2023);Experiment 3;Orientation
2;45;52;7;0.781404200010002;3;27;201;0;Ozkirli & Pascucci (2023);Experiment 3;Orientation
2;124;105;-19;0.815139099955559;3;-79;202;0;Ozkirli & Pascucci (2023);Experiment 3;Orientation
2;104;83;-21;0.648538199719042;3;20;203;0;Ozkirli & Pascucci (2023);Experiment 3;Orientation
2;174;167;-7;1.16524950042367;3;-70;204;0;Ozkirli & Pascucci (2023);Experiment 3;Orientation
2;127;126;-1;1.0900775003247;3;47;205;0;Ozkirli & Pascucci (2023);Experiment 3;Orientation
2;142;148;6;0.782450800295919;3;-15;206;0;Ozkirli & Pascucci (2023);Experiment 3;Orientation
2;14;6;-8;0.798478899989277;3;-52;207;0;Ozkirli & Pascucci (2023);Experiment 3;Orientation
2;74;51;-23;0.847982000093907;3;-60;208;0;Ozkirli & Pascucci (2023);Experiment 3;Orientation
2;174;168;-6;1.17317149974406;3;80;209;0;Ozkirli & Pascucci (2023);Experiment 3;Orientation
2;149;161;12;1.28171670017764;3;25;210;0;Ozkirli & Pascucci (2023);Experiment 3;Orientation
2;17;20;3;1.5149962999858;3;-48;211;0;Ozkirli & Pascucci (2023);Experiment 3;Orientation
2;119;128;9;2.43133879965171;3;78;212;0;Ozkirli & Pascucci (2023);Experiment 3;Orientation
2;144;133;-11;1.0901168002747;3;-25;213;0;Ozkirli & Pascucci (2023);Experiment 3;Orientation
2;96;86;-10;1.03180340025574;3;48;214;0;Ozkirli & Pascucci (2023);Experiment 3;Orientation
2;79;92;13;0.865176800172776;3;17;215;0;Ozkirli & Pascucci (2023);Experiment 3;Orientation
2;117;107;-10;0.915067400317639;3;-38;216;0;Ozkirli & Pascucci (2023);Experiment 3;Orientation
2;108;127;19;0.939972400199622;3;9;217;0;Ozkirli & Pascucci (2023);Experiment 3;Orientation
2;50;47;-3;0.948510699905455;3;58;218;0;Ozkirli & Pascucci (2023);Experiment 3;Orientation
2;108;85;-23;1.26506919972599;3;-58;219;0;Ozkirli & Pascucci (2023);Experiment 3;Orientation
2;112;87;-25;1.20672190003097;3;-4;220;0;Ozkirli & Pascucci (2023);Experiment 3;Orientation
2;13;11;-2;0.773475899826735;3;-81;221;0;Ozkirli & Pascucci (2023);Experiment 3;Orientation
2;121;130;9;0.806521899998188;3;72;222;0;Ozkirli & Pascucci (2023);Experiment 3;Orientation
2;115;107;-8;1.09017200022936;3;6;223;0;Ozkirli & Pascucci (2023);Experiment 3;Orientation
2;105;124;19;0.523464400321245;3;10;224;0;Ozkirli & Pascucci (2023);Experiment 3;Orientation
2;138;129;-9;0.731892299838364;3;-33;225;0;Ozkirli & Pascucci (2023);Experiment 3;Orientation
2;153;156;3;1.09009640011936;3;-15;226;0;Ozkirli & Pascucci (2023);Experiment 3;Orientation
2;48;52;4;0.898326000198722;3;-75;227;0;Ozkirli & Pascucci (2023);Experiment 3;Orientation
2;154;167;13;1.0394851998426;3;74;228;0;Ozkirli & Pascucci (2023);Experiment 3;Orientation
2;54;53;-1;0.948202500119805;3;-80;229;0;Ozkirli & Pascucci (2023);Experiment 3;Orientation
2;33;33;0;0.581820600200444;3;21;230;0;Ozkirli & Pascucci (2023);Experiment 3;Orientation
2;141;128;-13;0.848495800048113;3;72;231;0;Ozkirli & Pascucci (2023);Experiment 3;Orientation
2;54;30;-24;0.756764800287783;3;87;232;0;Ozkirli & Pascucci (2023);Experiment 3;Orientation
2;61;71;10;1.44002329977229;3;-7;233;0;Ozkirli & Pascucci (2023);Experiment 3;Orientation
2;90;75;-15;1.43192670028657;3;-29;234;0;Ozkirli & Pascucci (2023);Experiment 3;Orientation
2;180;169;-11;0.940095700323582;3;-90;235;0;Ozkirli & Pascucci (2023);Experiment 3;Orientation
2;15;15;0;0.906716200057417;3;-15;236;0;Ozkirli & Pascucci (2023);Experiment 3;Orientation
2;62;61;-1;1.09849849995226;3;-47;237;0;Ozkirli & Pascucci (2023);Experiment 3;Orientation
2;29;12;-17;1.03181750001386;3;33;238;0;Ozkirli & Pascucci (2023);Experiment 3;Orientation
2;109;92;-17;0.988741099834442;3;-80;239;0;Ozkirli & Pascucci (2023);Experiment 3;Orientation
2;159;160;1;1.8232064996846;3;-50;240;0;Ozkirli & Pascucci (2023);Experiment 3;Orientation
2;134;145;11;0.94020130019635;3;25;241;0;Ozkirli & Pascucci (2023);Experiment 3;Orientation
2;45;43;-2;0.806373199913651;3;89;242;0;Ozkirli & Pascucci (2023);Experiment 3;Orientation
2;149;164;15;0.848697500303388;3;76;243;0;Ozkirli & Pascucci (2023);Experiment 3;Orientation
2;169;0;11;1.18176050018519;3;-20;244;0;Ozkirli & Pascucci (2023);Experiment 3;Orientation
2;113;100;-13;1.98950069956481;3;56;245;0;Ozkirli & Pascucci (2023);Experiment 3;Orientation
2;35;37;2;0.690409699920565;3;78;246;0;Ozkirli & Pascucci (2023);Experiment 3;Orientation
2;25;18;-7;0.881730100139976;3;10;247;0;Ozkirli & Pascucci (2023);Experiment 3;Orientation
2;7;5;-2;0.565112499985844;3;18;248;0;Ozkirli & Pascucci (2023);Experiment 3;Orientation
2;160;136;-24;0.781807599589229;3;27;249;0;Ozkirli & Pascucci (2023);Experiment 3;Orientation
2;160;172;12;1.1316134002991;3;0;250;0;Ozkirli & Pascucci (2023);Experiment 3;Orientation
2;3;168;-15;0.881861299742013;3;-23;251;0;Ozkirli & Pascucci (2023);Experiment 3;Orientation
2;72;76;4;0.940050899982452;3;-69;252;0;Ozkirli & Pascucci (2023);Experiment 3;Orientation
2;130;121;-9;1.50700219999999;3;-58;253;0;Ozkirli & Pascucci (2023);Experiment 3;Orientation
2;154;154;0;0.665169300045818;3;-24;254;0;Ozkirli & Pascucci (2023);Experiment 3;Orientation
2;77;80;3;1.0900637996383;3;77;255;0;Ozkirli & Pascucci (2023);Experiment 3;Orientation
2;47;25;-22;0.548555199988186;3;30;256;0;Ozkirli & Pascucci (2023);Experiment 3;Orientation
2;113;105;-8;0.77354669990018;3;-66;257;0;Ozkirli & Pascucci (2023);Experiment 3;Orientation
2;86;70;-16;0.831724399700761;3;27;258;0;Ozkirli & Pascucci (2023);Experiment 3;Orientation
2;23;36;13;0.906594499945641;3;63;259;0;Ozkirli & Pascucci (2023);Experiment 3;Orientation
2;11;9;-2;1.00677819969133;3;12;260;0;Ozkirli & Pascucci (2023);Experiment 3;Orientation
2;24;23;-1;0.881772599648684;3;-13;261;0;Ozkirli & Pascucci (2023);Experiment 3;Orientation
2;136;163;27;0.931789699941874;3;68;262;0;Ozkirli & Pascucci (2023);Experiment 3;Orientation
2;56;55;-1;1.56505929958075;3;80;263;0;Ozkirli & Pascucci (2023);Experiment 3;Orientation
2;170;159;-11;0.790104299783707;3;66;264;0;Ozkirli & Pascucci (2023);Experiment 3;Orientation
2;158;155;-3;0.890177400317043;3;12;265;0;Ozkirli & Pascucci (2023);Experiment 3;Orientation
2;179;160;-19;0.973496300168335;3;-21;266;0;Ozkirli & Pascucci (2023);Experiment 3;Orientation
2;64;53;-11;0.932080000173301;3;-65;267;0;Ozkirli & Pascucci (2023);Experiment 3;Orientation
2;156;154;-2;0.573521700222045;3;88;268;0;Ozkirli & Pascucci (2023);Experiment 3;Orientation
2;161;149;-12;1.08210239978507;3;-5;269;0;Ozkirli & Pascucci (2023);Experiment 3;Orientation
2;156;167;11;1.06518109980971;3;5;270;0;Ozkirli & Pascucci (2023);Experiment 3;Orientation
2;169;151;-18;0.898420300334692;3;-13;271;0;Ozkirli & Pascucci (2023);Experiment 3;Orientation
2;13;8;-5;1.0738951000385;3;-24;272;0;Ozkirli & Pascucci (2023);Experiment 3;Orientation
2;98;83;-15;1.36458660010248;3;-85;273;0;Ozkirli & Pascucci (2023);Experiment 3;Orientation
2;41;34;-7;0.773301300127059;3;57;274;0;Ozkirli & Pascucci (2023);Experiment 3;Orientation
2;117;107;-10;1.29114399990067;3;-76;275;0;Ozkirli & Pascucci (2023);Experiment 3;Orientation
2;77;76;-1;1.22431219974533;3;40;276;0;Ozkirli & Pascucci (2023);Experiment 3;Orientation
2;16;8;-8;1.69103730004281;3;61;277;0;Ozkirli & Pascucci (2023);Experiment 3;Orientation
2;53;48;-5;0.907738400157541;3;-37;278;0;Ozkirli & Pascucci (2023);Experiment 3;Orientation
2;90;74;-16;0.899570699781179;3;-37;279;0;Ozkirli & Pascucci (2023);Experiment 3;Orientation
2;58;55;-3;0.891068500000983;3;32;280;0;Ozkirli & Pascucci (2023);Experiment 3;Orientation
2;81;62;-19;0.874395300168544;3;-23;281;0;Ozkirli & Pascucci (2023);Experiment 3;Orientation
2;167;171;4;1.03278509993106;3;-86;282;0;Ozkirli & Pascucci (2023);Experiment 3;Orientation
2;139;142;3;1.05808650003746;3;28;283;0;Ozkirli & Pascucci (2023);Experiment 3;Orientation
2;147;138;-9;0.949755800422281;3;-8;284;0;Ozkirli & Pascucci (2023);Experiment 3;Orientation
2;26;11;-15;1.07487959973514;3;-59;285;0;Ozkirli & Pascucci (2023);Experiment 3;Orientation
2;126;115;-11;1.28257620008662;3;80;286;0;Ozkirli & Pascucci (2023);Experiment 3;Orientation
2;93;80;-13;1.45708130020648;3;33;287;0;Ozkirli & Pascucci (2023);Experiment 3;Orientation
2;63;41;-22;0.982921200338751;3;30;288;0;Ozkirli & Pascucci (2023);Experiment 3;Orientation
2;168;167;-1;1.23168339999393;3;75;289;0;Ozkirli & Pascucci (2023);Experiment 3;Orientation
2;138;132;-6;1.13257930008695;3;30;290;0;Ozkirli & Pascucci (2023);Experiment 3;Orientation
2;51;38;-13;0.765100100077689;3;87;291;0;Ozkirli & Pascucci (2023);Experiment 3;Orientation
2;73;61;-12;1.59840450016782;3;-22;292;0;Ozkirli & Pascucci (2023);Experiment 3;Orientation
2;41;31;-10;1.08182539977133;3;32;293;0;Ozkirli & Pascucci (2023);Experiment 3;Orientation
2;38;46;8;0.848480999935418;3;3;294;0;Ozkirli & Pascucci (2023);Experiment 3;Orientation
2;150;135;-15;1.06508240010589;3;68;295;0;Ozkirli & Pascucci (2023);Experiment 3;Orientation
2;44;47;3;0.906753000337631;3;-74;296;0;Ozkirli & Pascucci (2023);Experiment 3;Orientation
2;15;19;4;0.70679479977116;3;29;297;0;Ozkirli & Pascucci (2023);Experiment 3;Orientation
2;4;171;-13;0.873335599899292;3;11;298;0;Ozkirli & Pascucci (2023);Experiment 3;Orientation
2;141;129;-12;1.15673620020971;3;43;299;0;Ozkirli & Pascucci (2023);Experiment 3;Orientation
2;22;15;-7;1.24009560002014;3;-61;300;0;Ozkirli & Pascucci (2023);Experiment 3;Orientation
2;104;81;-23;1.03177790017799;4;-82;301;1;Ozkirli & Pascucci (2023);Experiment 3;Orientation
2;123;139;16;0.57351619983092;4;-19;302;1;Ozkirli & Pascucci (2023);Experiment 3;Orientation
2;48;104;56;0.490202400367707;4;75;303;1;Ozkirli & Pascucci (2023);Experiment 3;Orientation
2;172;164;-8;1.58955899998546;4;56;304;1;Ozkirli & Pascucci (2023);Experiment 3;Orientation
2;91;90;-1;0.906818399671465;4;81;305;1;Ozkirli & Pascucci (2023);Experiment 3;Orientation
2;115;107;-8;1.24160229973495;4;-24;306;1;Ozkirli & Pascucci (2023);Experiment 3;Orientation
2;36;32;-4;1.00674390001222;4;79;307;1;Ozkirli & Pascucci (2023);Experiment 3;Orientation
2;149;148;-1;0.956502600107342;4;67;308;1;Ozkirli & Pascucci (2023);Experiment 3;Orientation
2;1;5;4;1.29000869998708;4;-32;309;1;Ozkirli & Pascucci (2023);Experiment 3;Orientation
2;36;32;-4;0.682115200441331;4;-35;310;1;Ozkirli & Pascucci (2023);Experiment 3;Orientation
2;108;67;-41;1.09834779985249;4;-72;311;1;Ozkirli & Pascucci (2023);Experiment 3;Orientation
2;62;44;-18;1.02342749992386;4;46;312;1;Ozkirli & Pascucci (2023);Experiment 3;Orientation
2;117;72;-45;0.673412799835205;4;-55;313;1;Ozkirli & Pascucci (2023);Experiment 3;Orientation
2;139;154;15;1.240092900116;4;-22;314;1;Ozkirli & Pascucci (2023);Experiment 3;Orientation
2;162;170;8;1.28998980019242;4;-23;315;1;Ozkirli & Pascucci (2023);Experiment 3;Orientation
2;30;27;-3;1.16505189985037;4;-48;316;1;Ozkirli & Pascucci (2023);Experiment 3;Orientation
2;43;48;5;1.29038729984313;4;-13;317;1;Ozkirli & Pascucci (2023);Experiment 3;Orientation
2;32;11;-21;0.748585400171578;4;11;318;1;Ozkirli & Pascucci (2023);Experiment 3;Orientation
2;69;66;-3;0.765279399696738;4;-37;319;1;Ozkirli & Pascucci (2023);Experiment 3;Orientation
2;165;4;19;0.848474200349301;4;84;320;1;Ozkirli & Pascucci (2023);Experiment 3;Orientation
2;90;82;-8;0.756861900445074;4;75;321;1;Ozkirli & Pascucci (2023);Experiment 3;Orientation
2;143;113;-30;1.20701680006459;4;-53;322;1;Ozkirli & Pascucci (2023);Experiment 3;Orientation
2;146;131;-15;1.44837370002642;4;-3;323;1;Ozkirli & Pascucci (2023);Experiment 3;Orientation
2;37;46;9;1.28962259972468;4;-71;324;1;Ozkirli & Pascucci (2023);Experiment 3;Orientation
2;145;147;2;1.33172499993816;4;72;325;1;Ozkirli & Pascucci (2023);Experiment 3;Orientation
2;147;143;-4;1.90685970010236;4;-2;326;1;Ozkirli & Pascucci (2023);Experiment 3;Orientation
2;70;69;-1;1.40667700022459;4;77;327;1;Ozkirli & Pascucci (2023);Experiment 3;Orientation
2;71;75;4;0.740125200245529;4;-1;328;1;Ozkirli & Pascucci (2023);Experiment 3;Orientation
2;29;16;-13;1.58998019993305;4;42;329;1;Ozkirli & Pascucci (2023);Experiment 3;Orientation
2;81;73;-8;0.915228500030935;4;-52;330;1;Ozkirli & Pascucci (2023);Experiment 3;Orientation
2;14;13;-1;1.20677000004798;4;67;331;1;Ozkirli & Pascucci (2023);Experiment 3;Orientation
2;96;75;-21;1.03166209999472;4;-82;332;1;Ozkirli & Pascucci (2023);Experiment 3;Orientation
2;72;77;5;0.981769600417465;4;24;333;1;Ozkirli & Pascucci (2023);Experiment 3;Orientation
2;17;6;-11;0.84021669998765;4;55;334;1;Ozkirli & Pascucci (2023);Experiment 3;Orientation
2;146;145;-1;1.16498949984089;4;51;335;1;Ozkirli & Pascucci (2023);Experiment 3;Orientation
2;143;142;-1;0.648444500286132;4;3;336;1;Ozkirli & Pascucci (2023);Experiment 3;Orientation
2;168;173;5;0.72363550029695;4;-25;337;1;Ozkirli & Pascucci (2023);Experiment 3;Orientation
2;158;150;-8;1.03160949982703;4;10;338;1;Ozkirli & Pascucci (2023);Experiment 3;Orientation
2;135;130;-5;0.881724100094289;4;23;339;1;Ozkirli & Pascucci (2023);Experiment 3;Orientation
2;17;13;-4;0.715078799985349;4;-62;340;1;Ozkirli & Pascucci (2023);Experiment 3;Orientation
2;127;108;-19;1.63995500002056;4;70;341;1;Ozkirli & Pascucci (2023);Experiment 3;Orientation
2;60;64;4;1.29006779985502;4;67;342;1;Ozkirli & Pascucci (2023);Experiment 3;Orientation
2;107;97;-10;1.06513500027359;4;-47;343;1;Ozkirli & Pascucci (2023);Experiment 3;Orientation
2;28;21;-7;0.94840140035376;4;79;344;1;Ozkirli & Pascucci (2023);Experiment 3;Orientation
2;7;175;-12;0.848414500243962;4;21;345;1;Ozkirli & Pascucci (2023);Experiment 3;Orientation
2;157;159;2;0.8401859998703;4;30;346;1;Ozkirli & Pascucci (2023);Experiment 3;Orientation
2;105;99;-6;1.15672730002552;4;52;347;1;Ozkirli & Pascucci (2023);Experiment 3;Orientation
2;25;6;-19;0.623079400043935;4;80;348;1;Ozkirli & Pascucci (2023);Experiment 3;Orientation
2;29;33;4;1.44010720029473;4;-4;349;1;Ozkirli & Pascucci (2023);Experiment 3;Orientation
2;104;98;-6;0.816124399658293;4;-75;350;1;Ozkirli & Pascucci (2023);Experiment 3;Orientation
2;145;124;-21;0.85690850019455;4;-41;351;1;Ozkirli & Pascucci (2023);Experiment 3;Orientation
2;125;122;-3;1.10677629988641;4;20;352;1;Ozkirli & Pascucci (2023);Experiment 3;Orientation
2;29;32;3;0.798474599607289;4;-84;353;1;Ozkirli & Pascucci (2023);Experiment 3;Orientation
2;17;26;9;0.890064899809659;4;12;354;1;Ozkirli & Pascucci (2023);Experiment 3;Orientation
2;5;18;13;0.890387699939311;4;12;355;1;Ozkirli & Pascucci (2023);Experiment 3;Orientation
2;60;59;-1;1.09843070013449;4;-55;356;1;Ozkirli & Pascucci (2023);Experiment 3;Orientation
2;154;158;4;1.09842840023339;4;86;357;1;Ozkirli & Pascucci (2023);Experiment 3;Orientation
2;95;77;-18;1.0734026003629;4;59;358;1;Ozkirli & Pascucci (2023);Experiment 3;Orientation
2;41;51;10;0.948470300063491;4;54;359;1;Ozkirli & Pascucci (2023);Experiment 3;Orientation
2;13;178;-15;0.765528799965978;4;28;360;1;Ozkirli & Pascucci (2023);Experiment 3;Orientation
2;87;69;-18;0.698411700315773;4;-74;361;1;Ozkirli & Pascucci (2023);Experiment 3;Orientation
2;180;168;-12;0.756787199992687;4;87;362;1;Ozkirli & Pascucci (2023);Experiment 3;Orientation
2;11;171;-20;0.773517600260675;4;-11;363;1;Ozkirli & Pascucci (2023);Experiment 3;Orientation
2;40;36;-4;0.890101299621165;4;-29;364;1;Ozkirli & Pascucci (2023);Experiment 3;Orientation
2;99;110;11;1.1733786999248;4;-59;365;1;Ozkirli & Pascucci (2023);Experiment 3;Orientation
2;53;46;-7;1.54007679969072;4;46;366;1;Ozkirli & Pascucci (2023);Experiment 3;Orientation
2;121;103;-18;0.898580500390381;4;-68;367;1;Ozkirli & Pascucci (2023);Experiment 3;Orientation
2;46;53;7;0.773363700136542;4;75;368;1;Ozkirli & Pascucci (2023);Experiment 3;Orientation
2;22;22;0;0.723403800278902;4;24;369;1;Ozkirli & Pascucci (2023);Experiment 3;Orientation
2;179;161;-18;0.657111799810082;4;23;370;1;Ozkirli & Pascucci (2023);Experiment 3;Orientation
2;125;129;4;0.990441999863833;4;54;371;1;Ozkirli & Pascucci (2023);Experiment 3;Orientation
2;165;168;3;0.840044300071895;4;-40;372;1;Ozkirli & Pascucci (2023);Experiment 3;Orientation
2;46;41;-5;0.881857099942863;4;-61;373;1;Ozkirli & Pascucci (2023);Experiment 3;Orientation
2;5;5;0;0.848124600015581;4;41;374;1;Ozkirli & Pascucci (2023);Experiment 3;Orientation
2;96;83;-13;0.631822499912232;4;89;375;1;Ozkirli & Pascucci (2023);Experiment 3;Orientation
2;58;59;1;0.565994199831039;4;38;376;1;Ozkirli & Pascucci (2023);Experiment 3;Orientation
2;6;166;-20;0.606808299664408;4;52;377;1;Ozkirli & Pascucci (2023);Experiment 3;Orientation
2;19;6;-13;0.798384000081569;4;-13;378;1;Ozkirli & Pascucci (2023);Experiment 3;Orientation
2;44;42;-2;0.907889000140131;4;-25;379;1;Ozkirli & Pascucci (2023);Experiment 3;Orientation
2;83;80;-3;1.02355410018936;4;-39;380;1;Ozkirli & Pascucci (2023);Experiment 3;Orientation
2;153;170;17;0.790174900088459;4;-70;381;1;Ozkirli & Pascucci (2023);Experiment 3;Orientation
2;96;90;-6;1.20676629990339;4;57;382;1;Ozkirli & Pascucci (2023);Experiment 3;Orientation
2;16;21;5;0.648783100303262;4;80;383;1;Ozkirli & Pascucci (2023);Experiment 3;Orientation
2;102;100;-2;0.840077700093389;4;-86;384;1;Ozkirli & Pascucci (2023);Experiment 3;Orientation
2;37;30;-7;1.25670169992372;4;65;385;1;Ozkirli & Pascucci (2023);Experiment 3;Orientation
2;80;73;-7;0.581465699709952;4;-43;386;1;Ozkirli & Pascucci (2023);Experiment 3;Orientation
2;28;8;-20;0.757187999784946;4;52;387;1;Ozkirli & Pascucci (2023);Experiment 3;Orientation
2;6;7;1;0.606804300099611;4;22;388;1;Ozkirli & Pascucci (2023);Experiment 3;Orientation
2;75;50;-25;0.565898100379854;4;-69;389;1;Ozkirli & Pascucci (2023);Experiment 3;Orientation
2;60;59;-1;1.24859279999509;4;15;390;1;Ozkirli & Pascucci (2023);Experiment 3;Orientation
2;151;123;-28;0.764978499617428;4;89;391;1;Ozkirli & Pascucci (2023);Experiment 3;Orientation
2;106;121;15;0.715177500154823;4;45;392;1;Ozkirli & Pascucci (2023);Experiment 3;Orientation
2;100;98;-2;0.906800900120288;4;6;393;1;Ozkirli & Pascucci (2023);Experiment 3;Orientation
2;43;27;-16;1.14803280029446;4;57;394;1;Ozkirli & Pascucci (2023);Experiment 3;Orientation
2;123;118;-5;0.882877000141889;4;-80;395;1;Ozkirli & Pascucci (2023);Experiment 3;Orientation
2;34;48;14;0.715490899980068;4;89;396;1;Ozkirli & Pascucci (2023);Experiment 3;Orientation
2;90;72;-18;0.882569000124931;4;-56;397;1;Ozkirli & Pascucci (2023);Experiment 3;Orientation
2;135;131;-4;0.806833900045604;4;-45;398;1;Ozkirli & Pascucci (2023);Experiment 3;Orientation
2;132;127;-5;0.856775799766183;4;3;399;1;Ozkirli & Pascucci (2023);Experiment 3;Orientation
2;167;149;-18;0.632115199696273;4;-35;400;1;Ozkirli & Pascucci (2023);Experiment 3;Orientation
3;29;10;-19;1.68175250012428;1;NaN;1;1;Ozkirli & Pascucci (2023);Experiment 3;Orientation
3;114;135;21;0.723504700232297;1;-85;2;1;Ozkirli & Pascucci (2023);Experiment 3;Orientation
3;163;162;-1;1.18168389983475;1;-49;3;1;Ozkirli & Pascucci (2023);Experiment 3;Orientation
3;86;100;14;1.26524169975892;1;77;4;1;Ozkirli & Pascucci (2023);Experiment 3;Orientation
3;152;5;33;0.640167099889368;1;-66;5;1;Ozkirli & Pascucci (2023);Experiment 3;Orientation
3;87;106;19;1.24028789997101;1;65;6;1;Ozkirli & Pascucci (2023);Experiment 3;Orientation
3;101;93;-8;1.19007769972086;1;-14;7;1;Ozkirli & Pascucci (2023);Experiment 3;Orientation
3;71;104;33;1.11503629991785;1;30;8;1;Ozkirli & Pascucci (2023);Experiment 3;Orientation
3;128;70;-58;0.615083099808544;1;-57;9;1;Ozkirli & Pascucci (2023);Experiment 3;Orientation
3;48;62;14;0.973500299733132;1;80;10;1;Ozkirli & Pascucci (2023);Experiment 3;Orientation
3;45;31;-14;0.831798600032926;1;3;11;1;Ozkirli & Pascucci (2023);Experiment 3;Orientation
3;1;1;0;1.68198919994757;1;44;12;1;Ozkirli & Pascucci (2023);Experiment 3;Orientation
3;155;169;14;1.48172520007938;1;26;13;1;Ozkirli & Pascucci (2023);Experiment 3;Orientation
3;23;6;-17;1.09015249973163;1;-48;14;1;Ozkirli & Pascucci (2023);Experiment 3;Orientation
3;20;178;-22;1.00685090012848;1;3;15;1;Ozkirli & Pascucci (2023);Experiment 3;Orientation
3;91;91;0;1.59855990018696;1;-71;16;1;Ozkirli & Pascucci (2023);Experiment 3;Orientation
3;157;3;26;1.00671290000901;1;-66;17;1;Ozkirli & Pascucci (2023);Experiment 3;Orientation
3;165;177;12;0.973144200164825;1;-8;18;1;Ozkirli & Pascucci (2023);Experiment 3;Orientation
3;110;115;5;1.3317615003325;1;55;19;1;Ozkirli & Pascucci (2023);Experiment 3;Orientation
3;90;93;3;0.840097300242633;1;20;20;1;Ozkirli & Pascucci (2023);Experiment 3;Orientation
3;80;73;-7;0.790036300197244;1;10;21;1;Ozkirli & Pascucci (2023);Experiment 3;Orientation
3;148;169;21;0.690130600240082;1;-68;22;1;Ozkirli & Pascucci (2023);Experiment 3;Orientation
3;141;141;0;1.83158699981868;1;7;23;1;Ozkirli & Pascucci (2023);Experiment 3;Orientation
3;53;54;1;1.38205359969288;1;88;24;1;Ozkirli & Pascucci (2023);Experiment 3;Orientation
3;20;174;-26;0.68185880035162;1;33;25;1;Ozkirli & Pascucci (2023);Experiment 3;Orientation
3;95;87;-8;0.998734799679369;1;-75;26;1;Ozkirli & Pascucci (2023);Experiment 3;Orientation
3;79;69;-10;0.656605999916792;1;16;27;1;Ozkirli & Pascucci (2023);Experiment 3;Orientation
3;1;172;-9;1.31511530000716;1;78;28;1;Ozkirli & Pascucci (2023);Experiment 3;Orientation
3;161;174;13;1.35664119990543;1;20;29;1;Ozkirli & Pascucci (2023);Experiment 3;Orientation
3;118;137;19;1.14010680001229;1;43;30;1;Ozkirli & Pascucci (2023);Experiment 3;Orientation
3;110;89;-21;1.52350679971278;1;8;31;1;Ozkirli & Pascucci (2023);Experiment 3;Orientation
3;94;94;0;0.922664999961853;1;16;32;1;Ozkirli & Pascucci (2023);Experiment 3;Orientation
3;104;88;-16;1.39010359998792;1;-10;33;1;Ozkirli & Pascucci (2023);Experiment 3;Orientation
3;126;150;24;1.34840379981324;1;-22;34;1;Ozkirli & Pascucci (2023);Experiment 3;Orientation
3;34;35;1;1.60671940026805;1;-88;35;1;Ozkirli & Pascucci (2023);Experiment 3;Orientation
3;134;118;-16;0.98162079975009;1;80;36;1;Ozkirli & Pascucci (2023);Experiment 3;Orientation
3;116;106;-10;0.940152599941939;1;18;37;1;Ozkirli & Pascucci (2023);Experiment 3;Orientation
3;59;83;24;1.3484477000311;1;57;38;1;Ozkirli & Pascucci (2023);Experiment 3;Orientation
3;84;73;-11;0.906628800090402;1;-25;39;1;Ozkirli & Pascucci (2023);Experiment 3;Orientation
3;95;96;1;1.55672689992934;1;-11;40;1;Ozkirli & Pascucci (2023);Experiment 3;Orientation
3;147;152;5;1.48191329976544;1;-52;41;1;Ozkirli & Pascucci (2023);Experiment 3;Orientation
3;92;76;-16;0.673516300041229;1;55;42;1;Ozkirli & Pascucci (2023);Experiment 3;Orientation
3;163;0;17;1.24858270026743;1;-71;43;1;Ozkirli & Pascucci (2023);Experiment 3;Orientation
3;59;84;25;2.11468030000106;1;-76;44;1;Ozkirli & Pascucci (2023);Experiment 3;Orientation
3;85;96;11;3.12314020004123;1;-26;45;1;Ozkirli & Pascucci (2023);Experiment 3;Orientation
3;162;178;16;0.990441800095141;1;-77;46;1;Ozkirli & Pascucci (2023);Experiment 3;Orientation
3;122;148;26;1.11505609983578;1;40;47;1;Ozkirli & Pascucci (2023);Experiment 3;Orientation
3;59;24;-35;1.14045079983771;1;63;48;1;Ozkirli & Pascucci (2023);Experiment 3;Orientation
3;177;179;2;1.12341379979625;1;62;49;1;Ozkirli & Pascucci (2023);Experiment 3;Orientation
3;150;146;-4;0.923218400217593;1;27;50;1;Ozkirli & Pascucci (2023);Experiment 3;Orientation
3;40;10;-30;0.990070400293916;1;-70;51;1;Ozkirli & Pascucci (2023);Experiment 3;Orientation
3;90;86;-4;1.49848499987274;1;-50;52;1;Ozkirli & Pascucci (2023);Experiment 3;Orientation
3;147;162;15;0.848439000081271;1;-57;53;1;Ozkirli & Pascucci (2023);Experiment 3;Orientation
3;35;0;-35;1.27375849988312;1;-68;54;1;Ozkirli & Pascucci (2023);Experiment 3;Orientation
3;109;145;36;1.03999890014529;1;-74;55;1;Ozkirli & Pascucci (2023);Experiment 3;Orientation
3;109;118;9;1.03173969965428;1;0;56;1;Ozkirli & Pascucci (2023);Experiment 3;Orientation
3;65;71;6;1.27339640026912;1;44;57;1;Ozkirli & Pascucci (2023);Experiment 3;Orientation
3;173;6;13;2.02336170012131;1;72;58;1;Ozkirli & Pascucci (2023);Experiment 3;Orientation
3;68;87;19;1.24017370026559;1;-75;59;1;Ozkirli & Pascucci (2023);Experiment 3;Orientation
3;21;164;-37;0.773534000385553;1;47;60;1;Ozkirli & Pascucci (2023);Experiment 3;Orientation
3;47;61;14;1.49865000043064;1;-26;61;1;Ozkirli & Pascucci (2023);Experiment 3;Orientation
3;36;8;-28;1.43972750008106;1;11;62;1;Ozkirli & Pascucci (2023);Experiment 3;Orientation
3;63;77;14;2.59858669992536;1;-27;63;1;Ozkirli & Pascucci (2023);Experiment 3;Orientation
3;1;1;0;1.34811659995466;1;62;64;1;Ozkirli & Pascucci (2023);Experiment 3;Orientation
3;168;0;12;0.907425899989903;1;13;65;1;Ozkirli & Pascucci (2023);Experiment 3;Orientation
3;90;76;-14;1.97351499972865;1;78;66;1;Ozkirli & Pascucci (2023);Experiment 3;Orientation
3;55;53;-2;0.665130699984729;1;35;67;1;Ozkirli & Pascucci (2023);Experiment 3;Orientation
3;96;104;8;1.22322560008615;1;-41;68;1;Ozkirli & Pascucci (2023);Experiment 3;Orientation
3;34;42;8;0.598762100096792;1;62;69;1;Ozkirli & Pascucci (2023);Experiment 3;Orientation
3;47;72;25;1.14844959974289;1;-13;70;1;Ozkirli & Pascucci (2023);Experiment 3;Orientation
3;15;177;-18;1.38187730032951;1;32;71;1;Ozkirli & Pascucci (2023);Experiment 3;Orientation
3;172;5;13;0.698478899896145;1;23;72;1;Ozkirli & Pascucci (2023);Experiment 3;Orientation
3;82;81;-1;0.690496900118887;1;90;73;1;Ozkirli & Pascucci (2023);Experiment 3;Orientation
3;2;175;-7;1.8233405998908;1;80;74;1;Ozkirli & Pascucci (2023);Experiment 3;Orientation
3;29;22;-7;1.28999509988353;1;-27;75;1;Ozkirli & Pascucci (2023);Experiment 3;Orientation
3;98;93;-5;1.47375539969653;1;-69;76;1;Ozkirli & Pascucci (2023);Experiment 3;Orientation
3;179;3;4;0.715180799830705;1;-81;77;1;Ozkirli & Pascucci (2023);Experiment 3;Orientation
3;179;8;9;0.748500400222838;1;0;78;1;Ozkirli & Pascucci (2023);Experiment 3;Orientation
3;147;160;13;1.78169240010902;1;32;79;1;Ozkirli & Pascucci (2023);Experiment 3;Orientation
3;145;144;-1;1.29843399999663;1;2;80;1;Ozkirli & Pascucci (2023);Experiment 3;Orientation
3;175;7;12;1.09008320001885;1;-30;81;1;Ozkirli & Pascucci (2023);Experiment 3;Orientation
3;146;138;-8;0.965429599862546;1;29;82;1;Ozkirli & Pascucci (2023);Experiment 3;Orientation
3;53;70;17;2.31498570041731;1;-87;83;1;Ozkirli & Pascucci (2023);Experiment 3;Orientation
3;176;176;0;1.19826440000907;1;57;84;1;Ozkirli & Pascucci (2023);Experiment 3;Orientation
3;66;71;5;0.873088099993765;1;-70;85;1;Ozkirli & Pascucci (2023);Experiment 3;Orientation
3;14;174;-20;1.06516900006682;1;52;86;1;Ozkirli & Pascucci (2023);Experiment 3;Orientation
3;102;117;15;0.890281400177628;1;-88;87;1;Ozkirli & Pascucci (2023);Experiment 3;Orientation
3;83;89;6;1.58174720034003;1;19;88;1;Ozkirli & Pascucci (2023);Experiment 3;Orientation
3;169;170;1;1.2567862002179;1;-86;89;1;Ozkirli & Pascucci (2023);Experiment 3;Orientation
3;17;168;-29;1.02313819993287;1;-28;90;1;Ozkirli & Pascucci (2023);Experiment 3;Orientation
3;53;95;42;2.41496700001881;1;-36;91;1;Ozkirli & Pascucci (2023);Experiment 3;Orientation
3;88;109;21;1.85669649997726;1;-35;92;1;Ozkirli & Pascucci (2023);Experiment 3;Orientation
3;64;76;12;1.12334709987044;1;24;93;1;Ozkirli & Pascucci (2023);Experiment 3;Orientation
3;49;86;37;0.89870489994064;1;15;94;1;Ozkirli & Pascucci (2023);Experiment 3;Orientation
3;175;179;4;1.06542579969391;1;54;95;1;Ozkirli & Pascucci (2023);Experiment 3;Orientation
3;10;14;4;1.96536799985915;1;-15;96;1;Ozkirli & Pascucci (2023);Experiment 3;Orientation
3;38;49;11;2.90664750011638;1;-28;97;1;Ozkirli & Pascucci (2023);Experiment 3;Orientation
3;152;148;-4;1.36542410030961;1;66;98;1;Ozkirli & Pascucci (2023);Experiment 3;Orientation
3;101;74;-27;2.10642300033942;1;51;99;1;Ozkirli & Pascucci (2023);Experiment 3;Orientation
3;59;43;-16;0.748541099950671;1;42;100;1;Ozkirli & Pascucci (2023);Experiment 3;Orientation
3;129;133;4;1.24844609992579;2;-70;101;0;Ozkirli & Pascucci (2023);Experiment 3;Orientation
3;13;177;-16;0.865113100036979;2;-64;102;0;Ozkirli & Pascucci (2023);Experiment 3;Orientation
3;128;137;9;1.31600640015677;2;65;103;0;Ozkirli & Pascucci (2023);Experiment 3;Orientation
3;160;3;23;1.04018620029092;2;-32;104;0;Ozkirli & Pascucci (2023);Experiment 3;Orientation
3;165;164;-1;1.36494060000405;2;-5;105;0;Ozkirli & Pascucci (2023);Experiment 3;Orientation
3;74;79;5;0.873354700393975;2;-89;106;0;Ozkirli & Pascucci (2023);Experiment 3;Orientation
3;81;50;-31;2.99061080021784;2;-7;107;0;Ozkirli & Pascucci (2023);Experiment 3;Orientation
3;2;179;-3;0.890228100121021;2;79;108;0;Ozkirli & Pascucci (2023);Experiment 3;Orientation
3;11;178;-13;1.80673509975895;2;-9;109;0;Ozkirli & Pascucci (2023);Experiment 3;Orientation
3;6;179;-7;1.70675719995052;2;5;110;0;Ozkirli & Pascucci (2023);Experiment 3;Orientation
3;11;50;39;1.6233487999998;2;-5;111;0;Ozkirli & Pascucci (2023);Experiment 3;Orientation
3;147;137;-10;1.5233597997576;2;44;112;0;Ozkirli & Pascucci (2023);Experiment 3;Orientation
3;50;47;-3;1.85676949983463;2;-83;113;0;Ozkirli & Pascucci (2023);Experiment 3;Orientation
3;173;1;8;0.823491200339049;2;57;114;0;Ozkirli & Pascucci (2023);Experiment 3;Orientation
3;125;133;8;2.07328409980983;2;48;115;0;Ozkirli & Pascucci (2023);Experiment 3;Orientation
3;133;124;-9;1.69044570019469;2;-8;116;0;Ozkirli & Pascucci (2023);Experiment 3;Orientation
3;125;131;6;1.48165889969096;2;8;117;0;Ozkirli & Pascucci (2023);Experiment 3;Orientation
3;95;83;-12;1.46516430005431;2;30;118;0;Ozkirli & Pascucci (2023);Experiment 3;Orientation
3;102;83;-19;1.32339949999005;2;-7;119;0;Ozkirli & Pascucci (2023);Experiment 3;Orientation
3;22;6;-16;2.38997799996287;2;80;120;0;Ozkirli & Pascucci (2023);Experiment 3;Orientation
3;47;92;45;1.57350300019607;2;-25;121;0;Ozkirli & Pascucci (2023);Experiment 3;Orientation
3;14;2;-12;0.973482499830425;2;33;122;0;Ozkirli & Pascucci (2023);Experiment 3;Orientation
3;163;140;-23;1.0984426997602;2;31;123;0;Ozkirli & Pascucci (2023);Experiment 3;Orientation
3;152;152;0;0.556709100026637;2;11;124;0;Ozkirli & Pascucci (2023);Experiment 3;Orientation
3;35;58;23;0.648316100239754;2;-63;125;0;Ozkirli & Pascucci (2023);Experiment 3;Orientation
3;163;135;-28;2.41494720010087;2;52;126;0;Ozkirli & Pascucci (2023);Experiment 3;Orientation
3;8;2;-6;1.66507489979267;2;-25;127;0;Ozkirli & Pascucci (2023);Experiment 3;Orientation
3;23;14;-9;1.16521119978279;2;-15;128;0;Ozkirli & Pascucci (2023);Experiment 3;Orientation
3;161;168;7;1.64008959988132;2;42;129;0;Ozkirli & Pascucci (2023);Experiment 3;Orientation
3;40;58;18;1.86483190022409;2;-59;130;0;Ozkirli & Pascucci (2023);Experiment 3;Orientation
3;8;172;-16;1.01469659991562;2;32;131;0;Ozkirli & Pascucci (2023);Experiment 3;Orientation
3;93;87;-6;0.740558799821883;2;-85;132;0;Ozkirli & Pascucci (2023);Experiment 3;Orientation
3;9;179;-10;1.04044930031523;2;84;133;0;Ozkirli & Pascucci (2023);Experiment 3;Orientation
3;147;154;7;0.790439500007778;2;42;134;0;Ozkirli & Pascucci (2023);Experiment 3;Orientation
3;85;82;-3;0.873315900098532;2;62;135;0;Ozkirli & Pascucci (2023);Experiment 3;Orientation
3;74;82;8;0.731835800223053;2;11;136;0;Ozkirli & Pascucci (2023);Experiment 3;Orientation
3;4;0;-4;0.848464000038803;2;70;137;0;Ozkirli & Pascucci (2023);Experiment 3;Orientation
3;103;115;12;2.23168150009587;2;81;138;0;Ozkirli & Pascucci (2023);Experiment 3;Orientation
3;53;68;15;0.865250800270587;2;50;139;0;Ozkirli & Pascucci (2023);Experiment 3;Orientation
3;160;13;33;0.998394599650055;2;73;140;0;Ozkirli & Pascucci (2023);Experiment 3;Orientation
3;127;130;3;1.84831370040774;2;33;141;0;Ozkirli & Pascucci (2023);Experiment 3;Orientation
3;139;129;-10;1.2817161004059;2;-12;142;0;Ozkirli & Pascucci (2023);Experiment 3;Orientation
3;137;131;-6;1.04005540022627;2;2;143;0;Ozkirli & Pascucci (2023);Experiment 3;Orientation
3;118;145;27;1.948352499865;2;19;144;0;Ozkirli & Pascucci (2023);Experiment 3;Orientation
3;99;128;29;0.773473199922591;2;19;145;0;Ozkirli & Pascucci (2023);Experiment 3;Orientation
3;39;57;18;1.02349730022252;2;60;146;0;Ozkirli & Pascucci (2023);Experiment 3;Orientation
3;148;130;-18;0.715131499804556;2;71;147;0;Ozkirli & Pascucci (2023);Experiment 3;Orientation
3;97;87;-10;1.14837469998747;2;51;148;0;Ozkirli & Pascucci (2023);Experiment 3;Orientation
3;26;0;-26;0.831769300159067;2;71;149;0;Ozkirli & Pascucci (2023);Experiment 3;Orientation
3;12;2;-10;1.19021470006555;2;14;150;0;Ozkirli & Pascucci (2023);Experiment 3;Orientation
3;175;173;-2;0.73189780022949;2;17;151;0;Ozkirli & Pascucci (2023);Experiment 3;Orientation
3;99;93;-6;0.71521110041067;2;76;152;0;Ozkirli & Pascucci (2023);Experiment 3;Orientation
3;74;84;10;1.34856129996479;2;25;153;0;Ozkirli & Pascucci (2023);Experiment 3;Orientation
3;129;143;14;1.05675250012428;2;-55;154;0;Ozkirli & Pascucci (2023);Experiment 3;Orientation
3;34;28;-6;3.0148717998527;2;-85;155;0;Ozkirli & Pascucci (2023);Experiment 3;Orientation
3;143;168;25;1.41503350017592;2;71;156;0;Ozkirli & Pascucci (2023);Experiment 3;Orientation
3;172;1;9;1.4899802999571;2;-29;157;0;Ozkirli & Pascucci (2023);Experiment 3;Orientation
3;86;92;6;1.77324229991063;2;86;158;0;Ozkirli & Pascucci (2023);Experiment 3;Orientation
3;113;103;-10;1.1488890000619;2;-27;159;0;Ozkirli & Pascucci (2023);Experiment 3;Orientation
3;41;25;-16;1.11507340008393;2;72;160;0;Ozkirli & Pascucci (2023);Experiment 3;Orientation
3;14;174;-20;1.0151786999777;2;27;161;0;Ozkirli & Pascucci (2023);Experiment 3;Orientation
3;66;85;19;1.06503470009193;2;-52;162;0;Ozkirli & Pascucci (2023);Experiment 3;Orientation
3;148;158;10;1.00680200010538;2;-82;163;0;Ozkirli & Pascucci (2023);Experiment 3;Orientation
3;123;127;4;1.05679850000888;2;25;164;0;Ozkirli & Pascucci (2023);Experiment 3;Orientation
3;127;166;39;0.881190599873662;2;-4;165;0;Ozkirli & Pascucci (2023);Experiment 3;Orientation
3;128;133;5;0.765282399952412;2;-1;166;0;Ozkirli & Pascucci (2023);Experiment 3;Orientation
3;38;33;-5;0.898020199965686;2;90;167;0;Ozkirli & Pascucci (2023);Experiment 3;Orientation
3;95;92;-3;1.07340790005401;2;-57;168;0;Ozkirli & Pascucci (2023);Experiment 3;Orientation
3;82;59;-23;1.13189260009676;2;13;169;0;Ozkirli & Pascucci (2023);Experiment 3;Orientation
3;71;116;45;1.70655559981242;2;11;170;0;Ozkirli & Pascucci (2023);Experiment 3;Orientation
3;21;15;-6;1.36501869978383;2;50;171;0;Ozkirli & Pascucci (2023);Experiment 3;Orientation
3;142;134;-8;0.889966399874538;2;59;172;0;Ozkirli & Pascucci (2023);Experiment 3;Orientation
3;88;63;-25;1.19839640008286;2;54;173;0;Ozkirli & Pascucci (2023);Experiment 3;Orientation
3;153;3;30;0.814771099947393;2;-65;174;0;Ozkirli & Pascucci (2023);Experiment 3;Orientation
3;48;39;-9;0.76516589988023;2;-75;175;0;Ozkirli & Pascucci (2023);Experiment 3;Orientation
3;52;36;-16;1.08178039966151;2;-4;176;0;Ozkirli & Pascucci (2023);Experiment 3;Orientation
3;51;83;32;0.965453400276601;2;1;177;0;Ozkirli & Pascucci (2023);Experiment 3;Orientation
3;84;83;-1;1.09014929970726;2;-33;178;0;Ozkirli & Pascucci (2023);Experiment 3;Orientation
3;93;76;-17;0.973441399633884;2;-9;179;0;Ozkirli & Pascucci (2023);Experiment 3;Orientation
3;55;70;15;1.21497720014304;2;38;180;0;Ozkirli & Pascucci (2023);Experiment 3;Orientation
3;56;58;2;1.36490219971165;2;-1;181;0;Ozkirli & Pascucci (2023);Experiment 3;Orientation
3;177;0;3;0.640197600238025;2;59;182;0;Ozkirli & Pascucci (2023);Experiment 3;Orientation
3;142;145;3;1.08180410042405;2;35;183;0;Ozkirli & Pascucci (2023);Experiment 3;Orientation
3;7;7;0;1.62332639982924;2;-45;184;0;Ozkirli & Pascucci (2023);Experiment 3;Orientation
3;143;147;4;2.28153870021924;2;44;185;0;Ozkirli & Pascucci (2023);Experiment 3;Orientation
3;90;79;-11;1.15666630025953;2;53;186;0;Ozkirli & Pascucci (2023);Experiment 3;Orientation
3;8;5;-3;1.34019570006058;2;82;187;0;Ozkirli & Pascucci (2023);Experiment 3;Orientation
3;146;176;30;0.88178880000487;2;42;188;0;Ozkirli & Pascucci (2023);Experiment 3;Orientation
3;79;86;7;1.34000709978864;2;67;189;0;Ozkirli & Pascucci (2023);Experiment 3;Orientation
3;89;96;7;0.823591500055045;2;-10;190;0;Ozkirli & Pascucci (2023);Experiment 3;Orientation
3;37;14;-23;1.26509799994528;2;52;191;0;Ozkirli & Pascucci (2023);Experiment 3;Orientation
3;112;135;23;1.00647300016135;2;-75;192;0;Ozkirli & Pascucci (2023);Experiment 3;Orientation
3;112;140;28;0.640013900119811;2;0;193;0;Ozkirli & Pascucci (2023);Experiment 3;Orientation
3;158;178;20;1.33174359984696;2;-46;194;0;Ozkirli & Pascucci (2023);Experiment 3;Orientation
3;136;148;12;0.990412600338459;2;22;195;0;Ozkirli & Pascucci (2023);Experiment 3;Orientation
3;16;0;-16;1.07344690011814;2;-60;196;0;Ozkirli & Pascucci (2023);Experiment 3;Orientation
3;69;96;27;1.43177550006658;2;-53;197;0;Ozkirli & Pascucci (2023);Experiment 3;Orientation
3;22;18;-4;1.05673300009221;2;47;198;0;Ozkirli & Pascucci (2023);Experiment 3;Orientation
3;88;74;-14;1.64824090013281;2;-66;199;0;Ozkirli & Pascucci (2023);Experiment 3;Orientation
3;49;75;26;2.12324160011485;2;39;200;0;Ozkirli & Pascucci (2023);Experiment 3;Orientation
3;2;179;-3;1.239793300163;3;47;201;1;Ozkirli & Pascucci (2023);Experiment 3;Orientation
3;144;164;20;0.573438300285488;3;38;202;1;Ozkirli & Pascucci (2023);Experiment 3;Orientation
3;91;92;1;0.6984947999008;3;53;203;1;Ozkirli & Pascucci (2023);Experiment 3;Orientation
3;78;63;-15;0.631894699763507;3;13;204;1;Ozkirli & Pascucci (2023);Experiment 3;Orientation
3;144;162;18;1.24841210013255;3;-66;205;1;Ozkirli & Pascucci (2023);Experiment 3;Orientation
3;44;70;26;2.48162049986422;3;-80;206;1;Ozkirli & Pascucci (2023);Experiment 3;Orientation
3;64;83;19;0.765310499817133;3;-20;207;1;Ozkirli & Pascucci (2023);Experiment 3;Orientation
3;44;14;-30;1.43174020014703;3;20;208;1;Ozkirli & Pascucci (2023);Experiment 3;Orientation
3;104;117;13;1.56516500003636;3;-60;209;1;Ozkirli & Pascucci (2023);Experiment 3;Orientation
3;58;64;6;1.39012350002304;3;46;210;1;Ozkirli & Pascucci (2023);Experiment 3;Orientation
3;165;178;13;1.04846620000899;3;73;211;1;Ozkirli & Pascucci (2023);Experiment 3;Orientation
3;175;163;-12;1.22334730019793;3;-10;212;1;Ozkirli & Pascucci (2023);Experiment 3;Orientation
3;98;102;4;1.01544010033831;3;77;213;1;Ozkirli & Pascucci (2023);Experiment 3;Orientation
3;162;177;15;1.73999239969999;3;-64;214;1;Ozkirli & Pascucci (2023);Experiment 3;Orientation
3;115;122;7;0.715125600341707;3;47;215;1;Ozkirli & Pascucci (2023);Experiment 3;Orientation
3;101;108;7;1.01508959988132;3;14;216;1;Ozkirli & Pascucci (2023);Experiment 3;Orientation
3;115;2;67;0.998303000349551;3;-14;217;1;Ozkirli & Pascucci (2023);Experiment 3;Orientation
3;133;170;37;0.914855399634689;3;-18;218;1;Ozkirli & Pascucci (2023);Experiment 3;Orientation
3;60;60;0;1.01507190009579;3;73;219;1;Ozkirli & Pascucci (2023);Experiment 3;Orientation
3;85;101;16;0.690261799842119;3;-25;220;1;Ozkirli & Pascucci (2023);Experiment 3;Orientation
3;56;66;10;0.873511699959636;3;29;221;1;Ozkirli & Pascucci (2023);Experiment 3;Orientation
3;152;168;16;0.706733400002122;3;84;222;1;Ozkirli & Pascucci (2023);Experiment 3;Orientation
3;75;61;-14;1.67373399995267;3;77;223;1;Ozkirli & Pascucci (2023);Experiment 3;Orientation
3;133;150;17;0.798529100138694;3;-58;224;1;Ozkirli & Pascucci (2023);Experiment 3;Orientation
3;47;53;6;1.0990438000299;3;86;225;1;Ozkirli & Pascucci (2023);Experiment 3;Orientation
3;115;125;10;0.965090199839324;3;-68;226;1;Ozkirli & Pascucci (2023);Experiment 3;Orientation
3;96;90;-6;1.31512290006503;3;19;227;1;Ozkirli & Pascucci (2023);Experiment 3;Orientation
3;89;78;-11;1.24856190010905;3;7;228;1;Ozkirli & Pascucci (2023);Experiment 3;Orientation
3;178;168;-10;1.19021259993315;3;-89;229;1;Ozkirli & Pascucci (2023);Experiment 3;Orientation
3;52;20;-32;1.07393460022286;3;-54;230;1;Ozkirli & Pascucci (2023);Experiment 3;Orientation
3;76;104;28;1.18183630006388;3;-24;231;1;Ozkirli & Pascucci (2023);Experiment 3;Orientation
3;149;163;14;1.14018059987575;3;-73;232;1;Ozkirli & Pascucci (2023);Experiment 3;Orientation
3;22;18;-4;2.27339990017936;3;-53;233;1;Ozkirli & Pascucci (2023);Experiment 3;Orientation
3;153;151;-2;0.798488299828023;3;49;234;1;Ozkirli & Pascucci (2023);Experiment 3;Orientation
3;115;106;-9;0.857512299902737;3;38;235;1;Ozkirli & Pascucci (2023);Experiment 3;Orientation
3;5;2;-3;0.831895400304347;3;-70;236;1;Ozkirli & Pascucci (2023);Experiment 3;Orientation
3;133;103;-30;0.899028100073338;3;52;237;1;Ozkirli & Pascucci (2023);Experiment 3;Orientation
3;74;78;4;1.04847220005468;3;59;238;1;Ozkirli & Pascucci (2023);Experiment 3;Orientation
3;101;75;-26;0.973457800224423;3;-27;239;1;Ozkirli & Pascucci (2023);Experiment 3;Orientation
3;128;172;44;1.21509379986674;3;-27;240;1;Ozkirli & Pascucci (2023);Experiment 3;Orientation
3;139;174;35;1.00654669990763;3;-11;241;1;Ozkirli & Pascucci (2023);Experiment 3;Orientation
3;10;176;-14;1.74831049982458;3;-51;242;1;Ozkirli & Pascucci (2023);Experiment 3;Orientation
3;40;14;-26;2.81495360005647;3;-30;243;1;Ozkirli & Pascucci (2023);Experiment 3;Orientation
3;2;2;0;0.881685100030154;3;38;244;1;Ozkirli & Pascucci (2023);Experiment 3;Orientation
3;31;17;-14;0.814903500024229;3;-29;245;1;Ozkirli & Pascucci (2023);Experiment 3;Orientation
3;76;75;-1;0.540062900166959;3;-45;246;1;Ozkirli & Pascucci (2023);Experiment 3;Orientation
3;162;0;18;1.56510400027037;3;-86;247;1;Ozkirli & Pascucci (2023);Experiment 3;Orientation
3;1;179;-2;0.99837899999693;3;-19;248;1;Ozkirli & Pascucci (2023);Experiment 3;Orientation
3;66;73;7;1.49035810027272;3;-65;249;1;Ozkirli & Pascucci (2023);Experiment 3;Orientation
3;41;40;-1;1.09000520035625;3;25;250;1;Ozkirli & Pascucci (2023);Experiment 3;Orientation
3;65;74;9;0.882169200107455;3;-24;251;1;Ozkirli & Pascucci (2023);Experiment 3;Orientation
3;17;7;-10;0.873463499825448;3;48;252;1;Ozkirli & Pascucci (2023);Experiment 3;Orientation
3;167;170;3;1.41507870005444;3;30;253;1;Ozkirli & Pascucci (2023);Experiment 3;Orientation
3;117;116;-1;1.60665700025856;3;50;254;1;Ozkirli & Pascucci (2023);Experiment 3;Orientation
3;154;167;13;1.41511050006375;3;-37;255;1;Ozkirli & Pascucci (2023);Experiment 3;Orientation
3;6;173;-13;0.965045900084078;3;-32;256;1;Ozkirli & Pascucci (2023);Experiment 3;Orientation
3;65;60;-5;1.08165459986776;3;-59;257;1;Ozkirli & Pascucci (2023);Experiment 3;Orientation
3;47;111;64;0.606944000348449;3;18;258;1;Ozkirli & Pascucci (2023);Experiment 3;Orientation
3;27;3;-24;0.798558900132775;3;20;259;1;Ozkirli & Pascucci (2023);Experiment 3;Orientation
3;27;50;23;0.640195399988443;3;0;260;1;Ozkirli & Pascucci (2023);Experiment 3;Orientation
3;114;114;0;0.78184359986335;3;-87;261;1;Ozkirli & Pascucci (2023);Experiment 3;Orientation
3;69;70;1;0.998482400085777;3;45;262;1;Ozkirli & Pascucci (2023);Experiment 3;Orientation
3;44;77;33;0.798590499907732;3;25;263;1;Ozkirli & Pascucci (2023);Experiment 3;Orientation
3;94;90;-4;1.04005909990519;3;-50;264;1;Ozkirli & Pascucci (2023);Experiment 3;Orientation
3;96;95;-1;1.43198690004647;3;-2;265;1;Ozkirli & Pascucci (2023);Experiment 3;Orientation
3;29;8;-21;0.898753300309181;3;67;266;1;Ozkirli & Pascucci (2023);Experiment 3;Orientation
3;94;86;-8;0.598534599877894;3;-65;267;1;Ozkirli & Pascucci (2023);Experiment 3;Orientation
3;44;31;-13;1.33176690014079;3;50;268;1;Ozkirli & Pascucci (2023);Experiment 3;Orientation
3;17;3;-14;0.723527799826115;3;27;269;1;Ozkirli & Pascucci (2023);Experiment 3;Orientation
3;5;176;-9;0.681744299829006;3;12;270;1;Ozkirli & Pascucci (2023);Experiment 3;Orientation
3;130;138;8;0.931735400110483;3;55;271;1;Ozkirli & Pascucci (2023);Experiment 3;Orientation
3;96;87;-9;1.23217209987342;3;34;272;1;Ozkirli & Pascucci (2023);Experiment 3;Orientation
3;60;73;13;1.10689490009099;3;36;273;1;Ozkirli & Pascucci (2023);Experiment 3;Orientation
3;173;179;6;0.831739999819547;3;67;274;1;Ozkirli & Pascucci (2023);Experiment 3;Orientation
3;139;145;6;0.823335200082511;3;34;275;1;Ozkirli & Pascucci (2023);Experiment 3;Orientation
3;152;177;25;0.806889500003308;3;-13;276;1;Ozkirli & Pascucci (2023);Experiment 3;Orientation
3;100;83;-17;1.25678980024531;3;52;277;1;Ozkirli & Pascucci (2023);Experiment 3;Orientation
3;88;77;-11;0.990136700216681;3;12;278;1;Ozkirli & Pascucci (2023);Experiment 3;Orientation
3;46;81;35;0.906733700074255;3;42;279;1;Ozkirli & Pascucci (2023);Experiment 3;Orientation
3;6;4;-2;1.47337789973244;3;40;280;1;Ozkirli & Pascucci (2023);Experiment 3;Orientation
3;35;16;-19;2.16501329978928;3;-29;281;1;Ozkirli & Pascucci (2023);Experiment 3;Orientation
3;26;23;-3;0.731452300213277;3;9;282;1;Ozkirli & Pascucci (2023);Experiment 3;Orientation
3;49;58;9;0.731720199808478;3;-23;283;1;Ozkirli & Pascucci (2023);Experiment 3;Orientation
3;49;65;16;0.96514520002529;3;0;284;1;Ozkirli & Pascucci (2023);Experiment 3;Orientation
3;78;87;9;0.956814800389111;3;-29;285;1;Ozkirli & Pascucci (2023);Experiment 3;Orientation
3;22;14;-8;0.981693800073117;3;56;286;1;Ozkirli & Pascucci (2023);Experiment 3;Orientation
3;52;68;16;0.87344709970057;3;-30;287;1;Ozkirli & Pascucci (2023);Experiment 3;Orientation
3;76;83;7;0.565242699813098;3;-24;288;1;Ozkirli & Pascucci (2023);Experiment 3;Orientation
3;45;59;14;3.43988420022652;3;31;289;1;Ozkirli & Pascucci (2023);Experiment 3;Orientation
3;75;79;4;1.35612320015207;3;-30;290;1;Ozkirli & Pascucci (2023);Experiment 3;Orientation
3;11;29;18;1.0984967998229;3;64;291;1;Ozkirli & Pascucci (2023);Experiment 3;Orientation
3;59;72;13;1.38172509986907;3;-48;292;1;Ozkirli & Pascucci (2023);Experiment 3;Orientation
3;180;9;9;0.565291800070554;3;59;293;1;Ozkirli & Pascucci (2023);Experiment 3;Orientation
3;59;70;11;1.27328570000827;3;-59;294;1;Ozkirli & Pascucci (2023);Experiment 3;Orientation
3;75;90;15;0.590206800028682;3;-16;295;1;Ozkirli & Pascucci (2023);Experiment 3;Orientation
3;122;89;-33;0.948082000017166;3;-47;296;1;Ozkirli & Pascucci (2023);Experiment 3;Orientation
3;149;129;-20;1.16517159994692;3;-27;297;1;Ozkirli & Pascucci (2023);Experiment 3;Orientation
3;146;2;36;0.765107000246644;3;3;298;1;Ozkirli & Pascucci (2023);Experiment 3;Orientation
3;50;55;5;0.740171700250357;3;-84;299;1;Ozkirli & Pascucci (2023);Experiment 3;Orientation
3;148;169;21;0.973437100183219;3;82;300;1;Ozkirli & Pascucci (2023);Experiment 3;Orientation
3;118;116;-2;1.16511020017788;4;30;301;0;Ozkirli & Pascucci (2023);Experiment 3;Orientation
3;106;105;-1;0.898304400034249;4;12;302;0;Ozkirli & Pascucci (2023);Experiment 3;Orientation
3;113;100;-13;0.556771299801767;4;-7;303;0;Ozkirli & Pascucci (2023);Experiment 3;Orientation
3;20;9;-11;0.623898399993777;4;-87;304;0;Ozkirli & Pascucci (2023);Experiment 3;Orientation
3;114;111;-3;1.19845649972558;4;86;305;0;Ozkirli & Pascucci (2023);Experiment 3;Orientation
3;61;76;15;0.840145000256598;4;53;306;0;Ozkirli & Pascucci (2023);Experiment 3;Orientation
3;158;158;0;1.14014070015401;4;83;307;0;Ozkirli & Pascucci (2023);Experiment 3;Orientation
3;35;13;-22;1.04008689988405;4;-57;308;0;Ozkirli & Pascucci (2023);Experiment 3;Orientation
3;117;131;14;1.44842950021848;4;-82;309;0;Ozkirli & Pascucci (2023);Experiment 3;Orientation
3;71;78;7;0.981853199657053;4;46;310;0;Ozkirli & Pascucci (2023);Experiment 3;Orientation
3;149;168;19;0.9483997002244;4;-78;311;0;Ozkirli & Pascucci (2023);Experiment 3;Orientation
3;9;177;-12;1.11511189956218;4;-40;312;0;Ozkirli & Pascucci (2023);Experiment 3;Orientation
3;144;161;17;1.02377020008862;4;45;313;0;Ozkirli & Pascucci (2023);Experiment 3;Orientation
3;147;175;28;1.15680830040947;4;-3;314;0;Ozkirli & Pascucci (2023);Experiment 3;Orientation
3;33;16;-17;0.898485299665481;4;-66;315;0;Ozkirli & Pascucci (2023);Experiment 3;Orientation
3;89;91;2;1.22348899999633;4;-56;316;0;Ozkirli & Pascucci (2023);Experiment 3;Orientation
3;117;89;-28;0.706667100079358;4;-28;317;0;Ozkirli & Pascucci (2023);Experiment 3;Orientation
3;30;19;-11;0.923492199741304;4;87;318;0;Ozkirli & Pascucci (2023);Experiment 3;Orientation
3;50;73;23;0.965903799980879;4;-20;319;0;Ozkirli & Pascucci (2023);Experiment 3;Orientation
3;32;39;7;0.689749599900097;4;18;320;0;Ozkirli & Pascucci (2023);Experiment 3;Orientation
3;52;74;22;0.848402900155634;4;-20;321;0;Ozkirli & Pascucci (2023);Experiment 3;Orientation
3;113;125;12;0.89842229988426;4;-61;322;0;Ozkirli & Pascucci (2023);Experiment 3;Orientation
3;25;13;-12;0.948479099664837;4;88;323;0;Ozkirli & Pascucci (2023);Experiment 3;Orientation
3;123;101;-22;0.965092599857599;4;82;324;0;Ozkirli & Pascucci (2023);Experiment 3;Orientation
3;122;107;-15;0.590223600156605;4;1;325;0;Ozkirli & Pascucci (2023);Experiment 3;Orientation
3;49;62;13;1.06513829994947;4;73;326;0;Ozkirli & Pascucci (2023);Experiment 3;Orientation
3;120;101;-19;1.07347080018371;4;-71;327;0;Ozkirli & Pascucci (2023);Experiment 3;Orientation
3;124;119;-5;1.78176550008357;4;-4;328;0;Ozkirli & Pascucci (2023);Experiment 3;Orientation
3;174;170;-4;1.69805489992723;4;-50;329;0;Ozkirli & Pascucci (2023);Experiment 3;Orientation
3;37;61;24;0.915055499877781;4;-43;330;0;Ozkirli & Pascucci (2023);Experiment 3;Orientation
3;117;111;-6;1.94838690012693;4;-80;331;0;Ozkirli & Pascucci (2023);Experiment 3;Orientation
3;36;51;15;2.28193339984864;4;81;332;0;Ozkirli & Pascucci (2023);Experiment 3;Orientation
3;53;82;29;1.67340769991279;4;-17;333;0;Ozkirli & Pascucci (2023);Experiment 3;Orientation
3;52;51;-1;0.898461599834263;4;1;334;0;Ozkirli & Pascucci (2023);Experiment 3;Orientation
3;97;85;-12;0.648521500173956;4;-45;335;0;Ozkirli & Pascucci (2023);Experiment 3;Orientation
3;67;79;12;1.02347309980541;4;30;336;0;Ozkirli & Pascucci (2023);Experiment 3;Orientation
3;70;78;8;1.32375709991902;4;-3;337;0;Ozkirli & Pascucci (2023);Experiment 3;Orientation
3;70;69;-1;0.673573600128293;4;0;338;0;Ozkirli & Pascucci (2023);Experiment 3;Orientation
3;92;97;5;1.31517910026014;4;-22;339;0;Ozkirli & Pascucci (2023);Experiment 3;Orientation
3;51;61;10;1.28178409999236;4;41;340;0;Ozkirli & Pascucci (2023);Experiment 3;Orientation
3;34;173;-41;0.740165200084448;4;17;341;0;Ozkirli & Pascucci (2023);Experiment 3;Orientation
3;43;34;-9;0.982400699984282;4;-9;342;0;Ozkirli & Pascucci (2023);Experiment 3;Orientation
3;28;8;-20;1.97335779992864;4;15;343;0;Ozkirli & Pascucci (2023);Experiment 3;Orientation
3;24;155;-49;0.740202600136399;4;4;344;0;Ozkirli & Pascucci (2023);Experiment 3;Orientation
3;54;68;14;2.00662489980459;4;-30;345;0;Ozkirli & Pascucci (2023);Experiment 3;Orientation
3;62;60;-2;0.84005399979651;4;-8;346;0;Ozkirli & Pascucci (2023);Experiment 3;Orientation
3;24;3;-21;0.673473000060767;4;38;347;0;Ozkirli & Pascucci (2023);Experiment 3;Orientation
3;156;152;-4;0.840456599835306;4;48;348;0;Ozkirli & Pascucci (2023);Experiment 3;Orientation
3;127;106;-21;1.19012580020353;4;29;349;0;Ozkirli & Pascucci (2023);Experiment 3;Orientation
3;168;172;4;1.51511420030147;4;-41;350;0;Ozkirli & Pascucci (2023);Experiment 3;Orientation
3;149;160;11;1.3901801998727;4;19;351;0;Ozkirli & Pascucci (2023);Experiment 3;Orientation
3;63;75;12;1.0149050001055;4;86;352;0;Ozkirli & Pascucci (2023);Experiment 3;Orientation
3;81;76;-5;0.915057399775833;4;-18;353;0;Ozkirli & Pascucci (2023);Experiment 3;Orientation
3;65;91;26;1.07348910020664;4;16;354;0;Ozkirli & Pascucci (2023);Experiment 3;Orientation
3;141;162;21;1.23176999995485;4;-76;355;0;Ozkirli & Pascucci (2023);Experiment 3;Orientation
3;138;140;2;0.981746600009501;4;3;356;0;Ozkirli & Pascucci (2023);Experiment 3;Orientation
3;70;106;36;0.856736599933356;4;68;357;0;Ozkirli & Pascucci (2023);Experiment 3;Orientation
3;37;17;-20;1.23177839955315;4;33;358;0;Ozkirli & Pascucci (2023);Experiment 3;Orientation
3;111;52;-59;3.75634709978476;4;-74;359;0;Ozkirli & Pascucci (2023);Experiment 3;Orientation
3;18;7;-11;0.731847899965942;4;-87;360;0;Ozkirli & Pascucci (2023);Experiment 3;Orientation
3;4;167;-17;0.923755600117147;4;14;361;0;Ozkirli & Pascucci (2023);Experiment 3;Orientation
3;99;82;-17;1.21507430030033;4;85;362;0;Ozkirli & Pascucci (2023);Experiment 3;Orientation
3;75;81;6;0.922809900250286;4;24;363;0;Ozkirli & Pascucci (2023);Experiment 3;Orientation
3;28;5;-23;1.52337459987029;4;47;364;0;Ozkirli & Pascucci (2023);Experiment 3;Orientation
3;162;1;19;1.3817062000744;4;46;365;0;Ozkirli & Pascucci (2023);Experiment 3;Orientation
3;16;179;-17;1.05791499977931;4;-34;366;0;Ozkirli & Pascucci (2023);Experiment 3;Orientation
3;81;94;13;1.21503160009161;4;-65;367;0;Ozkirli & Pascucci (2023);Experiment 3;Orientation
3;106;74;-32;0.865207400172949;4;-25;368;0;Ozkirli & Pascucci (2023);Experiment 3;Orientation
3;137;151;14;1.47315629990771;4;-31;369;0;Ozkirli & Pascucci (2023);Experiment 3;Orientation
3;149;162;13;1.91498780017719;4;-12;370;0;Ozkirli & Pascucci (2023);Experiment 3;Orientation
3;116;115;-1;0.865502499975264;4;33;371;0;Ozkirli & Pascucci (2023);Experiment 3;Orientation
3;43;23;-20;1.14022499974817;4;73;372;0;Ozkirli & Pascucci (2023);Experiment 3;Orientation
3;39;39;0;0.690262599848211;4;4;373;0;Ozkirli & Pascucci (2023);Experiment 3;Orientation
3;95;87;-8;1.51496879989281;4;-56;374;0;Ozkirli & Pascucci (2023);Experiment 3;Orientation
3;28;22;-6;1.21441579982638;4;67;375;0;Ozkirli & Pascucci (2023);Experiment 3;Orientation
3;165;163;-2;1.440356799867;4;43;376;0;Ozkirli & Pascucci (2023);Experiment 3;Orientation
3;43;42;-1;0.856404799968004;4;-58;377;0;Ozkirli & Pascucci (2023);Experiment 3;Orientation
3;180;166;-14;1.30667500011623;4;43;378;0;Ozkirli & Pascucci (2023);Experiment 3;Orientation
3;1;5;4;1.08166929986328;4;-1;379;0;Ozkirli & Pascucci (2023);Experiment 3;Orientation
3;175;0;5;1.28988560009748;4;6;380;0;Ozkirli & Pascucci (2023);Experiment 3;Orientation
3;26;23;-3;1.16508099995553;4;-31;381;0;Ozkirli & Pascucci (2023);Experiment 3;Orientation
3;31;46;15;3.58975929999724;4;-5;382;0;Ozkirli & Pascucci (2023);Experiment 3;Orientation
3;91;99;8;0.798470799811184;4;-60;383;0;Ozkirli & Pascucci (2023);Experiment 3;Orientation
3;71;76;5;1.37336010020226;4;20;384;0;Ozkirli & Pascucci (2023);Experiment 3;Orientation
3;158;175;17;0.857131999917328;4;-87;385;0;Ozkirli & Pascucci (2023);Experiment 3;Orientation
3;27;19;-8;1.99827639991418;4;-49;386;0;Ozkirli & Pascucci (2023);Experiment 3;Orientation
3;51;98;47;0.798387499991804;4;-24;387;0;Ozkirli & Pascucci (2023);Experiment 3;Orientation
3;47;23;-24;0.923863099887967;4;4;388;0;Ozkirli & Pascucci (2023);Experiment 3;Orientation
3;39;13;-26;1.38172290008515;4;8;389;0;Ozkirli & Pascucci (2023);Experiment 3;Orientation
3;5;0;-5;1.46508260024711;4;34;390;0;Ozkirli & Pascucci (2023);Experiment 3;Orientation
3;158;174;16;1.59848219994456;4;27;391;0;Ozkirli & Pascucci (2023);Experiment 3;Orientation
3;77;85;8;1.53178970003501;4;81;392;0;Ozkirli & Pascucci (2023);Experiment 3;Orientation
3;168;168;0;1.1150707998313;4;89;393;0;Ozkirli & Pascucci (2023);Experiment 3;Orientation
3;25;6;-19;1.66505840001628;4;-37;394;0;Ozkirli & Pascucci (2023);Experiment 3;Orientation
3;58;74;16;1.23132090037689;4;-33;395;0;Ozkirli & Pascucci (2023);Experiment 3;Orientation
3;61;73;12;0.798434999771416;4;-3;396;0;Ozkirli & Pascucci (2023);Experiment 3;Orientation
3;30;22;-8;0.74025689996779;4;31;397;0;Ozkirli & Pascucci (2023);Experiment 3;Orientation
3;149;138;-11;1.11447119992226;4;61;398;0;Ozkirli & Pascucci (2023);Experiment 3;Orientation
3;123;90;-33;0.632105400320143;4;26;399;0;Ozkirli & Pascucci (2023);Experiment 3;Orientation
3;117;124;7;0.898527199868113;4;6;400;0;Ozkirli & Pascucci (2023);Experiment 3;Orientation
4;143;148;5;1.39829079993069;1;NaN;1;0;Ozkirli & Pascucci (2023);Experiment 3;Orientation
4;94;74;-20;1.42339880019426;1;49;2;0;Ozkirli & Pascucci (2023);Experiment 3;Orientation
4;72;75;3;0.8066989001818;1;22;3;0;Ozkirli & Pascucci (2023);Experiment 3;Orientation
4;66;74;8;0.864252400118858;1;6;4;0;Ozkirli & Pascucci (2023);Experiment 3;Orientation
4;10;17;7;0.61421599984169;1;56;5;0;Ozkirli & Pascucci (2023);Experiment 3;Orientation
4;80;78;-2;0.989656399935484;1;-70;6;0;Ozkirli & Pascucci (2023);Experiment 3;Orientation
4;113;73;-40;0.748529699631035;1;-33;7;0;Ozkirli & Pascucci (2023);Experiment 3;Orientation
4;66;59;-7;1.22335340036079;1;47;8;0;Ozkirli & Pascucci (2023);Experiment 3;Orientation
4;173;159;-14;0.906808299943805;1;73;9;0;Ozkirli & Pascucci (2023);Experiment 3;Orientation
4;135;164;29;1.16510519990698;1;38;10;0;Ozkirli & Pascucci (2023);Experiment 3;Orientation
4;45;41;-4;0.58191980002448;1;90;11;0;Ozkirli & Pascucci (2023);Experiment 3;Orientation
4;65;71;6;0.573517499957234;1;-20;12;0;Ozkirli & Pascucci (2023);Experiment 3;Orientation
4;80;66;-14;0.590214000083506;1;-15;13;0;Ozkirli & Pascucci (2023);Experiment 3;Orientation
4;136;139;3;0.948315099813044;1;-56;14;0;Ozkirli & Pascucci (2023);Experiment 3;Orientation
4;54;61;7;1.08173150010407;1;82;15;0;Ozkirli & Pascucci (2023);Experiment 3;Orientation
4;83;83;0;0.956716100219637;1;-29;16;0;Ozkirli & Pascucci (2023);Experiment 3;Orientation
4;168;148;-20;0.781859700102359;1;-85;17;0;Ozkirli & Pascucci (2023);Experiment 3;Orientation
4;97;96;-1;0.707119599916041;1;71;18;0;Ozkirli & Pascucci (2023);Experiment 3;Orientation
4;69;103;34;0.823386800009757;1;28;19;0;Ozkirli & Pascucci (2023);Experiment 3;Orientation
4;173;171;-2;0.490033500362188;1;76;20;0;Ozkirli & Pascucci (2023);Experiment 3;Orientation
4;78;73;-5;0.798421700019389;1;-85;21;0;Ozkirli & Pascucci (2023);Experiment 3;Orientation
4;174;170;-4;0.765179700218141;1;84;22;0;Ozkirli & Pascucci (2023);Experiment 3;Orientation
4;87;77;-10;0.723419799935073;1;87;23;0;Ozkirli & Pascucci (2023);Experiment 3;Orientation
4;127;99;-28;0.673542500007898;1;-40;24;0;Ozkirli & Pascucci (2023);Experiment 3;Orientation
4;141;163;22;1.27344499994069;1;-14;25;0;Ozkirli & Pascucci (2023);Experiment 3;Orientation
4;99;97;-2;1.14033879991621;1;42;26;0;Ozkirli & Pascucci (2023);Experiment 3;Orientation
4;95;83;-12;0.840162599924952;1;4;27;0;Ozkirli & Pascucci (2023);Experiment 3;Orientation
4;33;25;-8;0.931807999964803;1;62;28;0;Ozkirli & Pascucci (2023);Experiment 3;Orientation
4;89;75;-14;1.12359749991447;1;-56;29;0;Ozkirli & Pascucci (2023);Experiment 3;Orientation
4;106;102;-4;0.6984947999008;1;-17;30;0;Ozkirli & Pascucci (2023);Experiment 3;Orientation
4;98;94;-4;0.873595600016415;1;8;31;0;Ozkirli & Pascucci (2023);Experiment 3;Orientation
4;17;27;10;0.773416600190103;1;81;32;0;Ozkirli & Pascucci (2023);Experiment 3;Orientation
4;159;158;-1;1.12347699981183;1;38;33;0;Ozkirli & Pascucci (2023);Experiment 3;Orientation
4;103;105;2;1.17353999987245;1;56;34;0;Ozkirli & Pascucci (2023);Experiment 3;Orientation
4;49;31;-18;0.756777399685234;1;54;35;0;Ozkirli & Pascucci (2023);Experiment 3;Orientation
4;21;34;13;0.59846829995513;1;28;36;0;Ozkirli & Pascucci (2023);Experiment 3;Orientation
4;28;32;4;0.665128199849278;1;-7;37;0;Ozkirli & Pascucci (2023);Experiment 3;Orientation
4;84;73;-11;0.723506900016218;1;-56;38;0;Ozkirli & Pascucci (2023);Experiment 3;Orientation
4;85;99;14;0.856847499962896;1;-1;39;0;Ozkirli & Pascucci (2023);Experiment 3;Orientation
4;71;73;2;0.548484799917787;1;14;40;0;Ozkirli & Pascucci (2023);Experiment 3;Orientation
4;19;15;-4;0.765051700174809;1;52;41;0;Ozkirli & Pascucci (2023);Experiment 3;Orientation
4;106;108;2;0.765099400188774;1;-87;42;0;Ozkirli & Pascucci (2023);Experiment 3;Orientation
4;46;63;17;1.04875149996951;1;60;43;0;Ozkirli & Pascucci (2023);Experiment 3;Orientation
4;130;134;4;1.0730572999455;1;-84;44;0;Ozkirli & Pascucci (2023);Experiment 3;Orientation
4;135;148;13;0.690071800258011;1;-5;45;0;Ozkirli & Pascucci (2023);Experiment 3;Orientation
4;69;129;60;0.93182360008359;1;66;46;0;Ozkirli & Pascucci (2023);Experiment 3;Orientation
4;98;76;-22;0.448525000363588;1;-29;47;0;Ozkirli & Pascucci (2023);Experiment 3;Orientation
4;160;153;-7;0.80690379999578;1;-62;48;0;Ozkirli & Pascucci (2023);Experiment 3;Orientation
4;27;19;-8;0.990417100023478;1;-47;49;0;Ozkirli & Pascucci (2023);Experiment 3;Orientation
4;87;108;21;0.690143599640578;1;-60;50;0;Ozkirli & Pascucci (2023);Experiment 3;Orientation
4;152;153;1;1.1234260997735;1;-65;51;0;Ozkirli & Pascucci (2023);Experiment 3;Orientation
4;41;25;-16;0.539796400349587;1;-69;52;0;Ozkirli & Pascucci (2023);Experiment 3;Orientation
4;110;126;16;0.37352540018037;1;-69;53;0;Ozkirli & Pascucci (2023);Experiment 3;Orientation
4;102;104;2;0.814981299918145;1;8;54;0;Ozkirli & Pascucci (2023);Experiment 3;Orientation
4;136;161;25;0.473516199737787;1;-34;55;0;Ozkirli & Pascucci (2023);Experiment 3;Orientation
4;177;156;-21;0.465157699771225;1;-41;56;0;Ozkirli & Pascucci (2023);Experiment 3;Orientation
4;95;89;-6;0.615138300228864;1;82;57;0;Ozkirli & Pascucci (2023);Experiment 3;Orientation
4;115;96;-19;0.840778199955821;1;-20;58;0;Ozkirli & Pascucci (2023);Experiment 3;Orientation
4;164;9;25;0.640181000344455;1;-49;59;0;Ozkirli & Pascucci (2023);Experiment 3;Orientation
4;64;73;9;0.798144700005651;1;-80;60;0;Ozkirli & Pascucci (2023);Experiment 3;Orientation
4;131;143;12;0.456840499769896;1;-67;61;0;Ozkirli & Pascucci (2023);Experiment 3;Orientation
4;167;156;-11;0.8151795999147;1;-36;62;0;Ozkirli & Pascucci (2023);Experiment 3;Orientation
4;61;76;15;0.615194299723953;1;-74;63;0;Ozkirli & Pascucci (2023);Experiment 3;Orientation
4;81;70;-11;1.00685690017417;1;-20;64;0;Ozkirli & Pascucci (2023);Experiment 3;Orientation
4;173;164;-9;0.548485400155187;1;88;65;0;Ozkirli & Pascucci (2023);Experiment 3;Orientation
4;26;31;5;0.75637979991734;1;-33;66;0;Ozkirli & Pascucci (2023);Experiment 3;Orientation
4;5;174;-11;0.964994900394231;1;21;67;0;Ozkirli & Pascucci (2023);Experiment 3;Orientation
4;20;19;-1;0.732115400023758;1;-15;68;0;Ozkirli & Pascucci (2023);Experiment 3;Orientation
4;164;158;-6;0.881759500131011;1;36;69;0;Ozkirli & Pascucci (2023);Experiment 3;Orientation
4;62;76;14;0.490118000190705;1;-78;70;0;Ozkirli & Pascucci (2023);Experiment 3;Orientation
4;168;163;-5;2.91496649989858;1;74;71;0;Ozkirli & Pascucci (2023);Experiment 3;Orientation
4;30;20;-10;0.65654330002144;1;-42;72;0;Ozkirli & Pascucci (2023);Experiment 3;Orientation
4;133;113;-20;0.698554100003093;1;77;73;0;Ozkirli & Pascucci (2023);Experiment 3;Orientation
4;85;77;-8;0.698386699892581;1;48;74;0;Ozkirli & Pascucci (2023);Experiment 3;Orientation
4;146;151;5;1.04797980003059;1;-61;75;0;Ozkirli & Pascucci (2023);Experiment 3;Orientation
4;170;7;17;0.856869699899107;1;-24;76;0;Ozkirli & Pascucci (2023);Experiment 3;Orientation
4;116;100;-16;1.04016179963946;1;54;77;0;Ozkirli & Pascucci (2023);Experiment 3;Orientation
4;45;1;-44;0.723467499949038;1;71;78;0;Ozkirli & Pascucci (2023);Experiment 3;Orientation
4;158;153;-5;0.614923299755901;1;67;79;0;Ozkirli & Pascucci (2023);Experiment 3;Orientation
4;82;73;-9;0.740155799780041;1;76;80;0;Ozkirli & Pascucci (2023);Experiment 3;Orientation
4;36;38;2;0.773693900089711;1;46;81;0;Ozkirli & Pascucci (2023);Experiment 3;Orientation
4;63;68;5;0.681781300343573;1;-27;82;0;Ozkirli & Pascucci (2023);Experiment 3;Orientation
4;152;111;-41;0.964960500132293;1;-89;83;0;Ozkirli & Pascucci (2023);Experiment 3;Orientation
4;164;147;-17;0.807017000392079;1;-12;84;0;Ozkirli & Pascucci (2023);Experiment 3;Orientation
4;12;17;5;1.36508239991963;1;-28;85;0;Ozkirli & Pascucci (2023);Experiment 3;Orientation
4;178;165;-13;0.540241400245577;1;14;86;0;Ozkirli & Pascucci (2023);Experiment 3;Orientation
4;122;120;-2;0.590124300215393;1;56;87;0;Ozkirli & Pascucci (2023);Experiment 3;Orientation
4;94;96;2;0.67352439975366;1;28;88;0;Ozkirli & Pascucci (2023);Experiment 3;Orientation
4;89;70;-19;0.539864900056273;1;5;89;0;Ozkirli & Pascucci (2023);Experiment 3;Orientation
4;166;149;-17;0.731735200155526;1;-77;90;0;Ozkirli & Pascucci (2023);Experiment 3;Orientation
4;38;66;28;1.12356429966167;1;-52;91;0;Ozkirli & Pascucci (2023);Experiment 3;Orientation
4;139;125;-14;0.506993399932981;1;79;92;0;Ozkirli & Pascucci (2023);Experiment 3;Orientation
4;173;155;-18;0.698355899658054;1;-34;93;0;Ozkirli & Pascucci (2023);Experiment 3;Orientation
4;115;109;-6;0.648500500246882;1;58;94;0;Ozkirli & Pascucci (2023);Experiment 3;Orientation
4;178;18;20;0.748498800210655;1;-63;95;0;Ozkirli & Pascucci (2023);Experiment 3;Orientation
4;165;170;5;0.973439699970186;1;13;96;0;Ozkirli & Pascucci (2023);Experiment 3;Orientation
4;49;61;12;1.09875429980457;1;-64;97;0;Ozkirli & Pascucci (2023);Experiment 3;Orientation
4;162;166;4;0.815087900031358;1;67;98;0;Ozkirli & Pascucci (2023);Experiment 3;Orientation
4;177;148;-29;0.62341529969126;1;-15;99;0;Ozkirli & Pascucci (2023);Experiment 3;Orientation
4;156;164;8;1.2567158001475;1;21;100;0;Ozkirli & Pascucci (2023);Experiment 3;Orientation
4;91;82;-9;0.673476199619472;2;65;101;1;Ozkirli & Pascucci (2023);Experiment 3;Orientation
4;135;122;-13;1.15674490015954;2;-44;102;1;Ozkirli & Pascucci (2023);Experiment 3;Orientation
4;150;8;38;0.72412099968642;2;-15;103;1;Ozkirli & Pascucci (2023);Experiment 3;Orientation
4;9;11;2;0.890161599963903;2;-39;104;1;Ozkirli & Pascucci (2023);Experiment 3;Orientation
4;34;58;24;0.806993099860847;2;-25;105;1;Ozkirli & Pascucci (2023);Experiment 3;Orientation
4;69;83;14;0.557538200169802;2;-35;106;1;Ozkirli & Pascucci (2023);Experiment 3;Orientation
4;44;34;-10;1.09016820043325;2;25;107;1;Ozkirli & Pascucci (2023);Experiment 3;Orientation
4;39;28;-11;0.79839689983055;2;5;108;1;Ozkirli & Pascucci (2023);Experiment 3;Orientation
4;119;106;-13;0.781796100083739;2;-80;109;1;Ozkirli & Pascucci (2023);Experiment 3;Orientation
4;4;166;-18;0.865348600316793;2;-65;110;1;Ozkirli & Pascucci (2023);Experiment 3;Orientation
4;150;50;80;0.898464899975806;2;34;111;1;Ozkirli & Pascucci (2023);Experiment 3;Orientation
4;22;18;-4;0.998451599851251;2;-52;112;1;Ozkirli & Pascucci (2023);Experiment 3;Orientation
4;51;55;4;0.615055699832737;2;-29;113;1;Ozkirli & Pascucci (2023);Experiment 3;Orientation
4;159;162;3;0.63176490040496;2;72;114;1;Ozkirli & Pascucci (2023);Experiment 3;Orientation
4;36;39;3;0.57355699967593;2;-57;115;1;Ozkirli & Pascucci (2023);Experiment 3;Orientation
4;10;27;17;0.723434099927545;2;26;116;1;Ozkirli & Pascucci (2023);Experiment 3;Orientation
4;85;29;-56;0.831807100214064;2;-75;117;1;Ozkirli & Pascucci (2023);Experiment 3;Orientation
4;62;68;6;0.656800900120288;2;23;118;1;Ozkirli & Pascucci (2023);Experiment 3;Orientation
4;70;72;2;0.673595400061458;2;-8;119;1;Ozkirli & Pascucci (2023);Experiment 3;Orientation
4;174;173;-1;1.24964629998431;2;76;120;1;Ozkirli & Pascucci (2023);Experiment 3;Orientation
4;177;9;12;0.865069100167602;2;-3;121;1;Ozkirli & Pascucci (2023);Experiment 3;Orientation
4;143;142;-1;0.715159500017762;2;34;122;1;Ozkirli & Pascucci (2023);Experiment 3;Orientation
4;13;22;9;0.69852799968794;2;-50;123;1;Ozkirli & Pascucci (2023);Experiment 3;Orientation
4;38;45;7;0.63149549998343;2;-25;124;1;Ozkirli & Pascucci (2023);Experiment 3;Orientation
4;11;19;8;0.516061299946159;2;27;125;1;Ozkirli & Pascucci (2023);Experiment 3;Orientation
4;113;105;-8;0.973459100350738;2;78;126;1;Ozkirli & Pascucci (2023);Experiment 3;Orientation
4;145;119;-26;0.940152799710631;2;-32;127;1;Ozkirli & Pascucci (2023);Experiment 3;Orientation
4;179;152;-27;0.865171000361443;2;-34;128;1;Ozkirli & Pascucci (2023);Experiment 3;Orientation
4;154;153;-1;1.15670720022172;2;25;129;1;Ozkirli & Pascucci (2023);Experiment 3;Orientation
4;9;30;21;0.565218899864703;2;-35;130;1;Ozkirli & Pascucci (2023);Experiment 3;Orientation
4;6;29;23;0.989944799803197;2;3;131;1;Ozkirli & Pascucci (2023);Experiment 3;Orientation
4;110;103;-7;0.915355799719691;2;76;132;1;Ozkirli & Pascucci (2023);Experiment 3;Orientation
4;24;22;-2;0.86552849970758;2;86;133;1;Ozkirli & Pascucci (2023);Experiment 3;Orientation
4;150;136;-14;0.98996609961614;2;54;134;1;Ozkirli & Pascucci (2023);Experiment 3;Orientation
4;57;107;50;0.623570900410414;2;-87;135;1;Ozkirli & Pascucci (2023);Experiment 3;Orientation
4;87;62;-25;1.09927219990641;2;-30;136;1;Ozkirli & Pascucci (2023);Experiment 3;Orientation
4;111;81;-30;1.04851310001686;2;-24;137;1;Ozkirli & Pascucci (2023);Experiment 3;Orientation
4;135;121;-14;0.523101300001144;2;-24;138;1;Ozkirli & Pascucci (2023);Experiment 3;Orientation
4;60;63;3;0.839891899842769;2;75;139;1;Ozkirli & Pascucci (2023);Experiment 3;Orientation
4;157;153;-4;0.523523400072008;2;83;140;1;Ozkirli & Pascucci (2023);Experiment 3;Orientation
4;172;171;-1;0.415231000166386;2;-15;141;1;Ozkirli & Pascucci (2023);Experiment 3;Orientation
4;13;14;1;0.923456199932843;2;-21;142;1;Ozkirli & Pascucci (2023);Experiment 3;Orientation
4;49;28;-21;1.06520379986614;2;-36;143;1;Ozkirli & Pascucci (2023);Experiment 3;Orientation
4;159;153;-6;0.806531299836934;2;70;144;1;Ozkirli & Pascucci (2023);Experiment 3;Orientation
4;145;146;1;0.573536699637771;2;14;145;1;Ozkirli & Pascucci (2023);Experiment 3;Orientation
4;30;20;-10;0.831864300183952;2;-65;146;1;Ozkirli & Pascucci (2023);Experiment 3;Orientation
4;89;98;9;0.731354900170118;2;-59;147;1;Ozkirli & Pascucci (2023);Experiment 3;Orientation
4;77;72;-5;0.798514499794692;2;12;148;1;Ozkirli & Pascucci (2023);Experiment 3;Orientation
4;82;98;16;0.749440299812704;2;-5;149;1;Ozkirli & Pascucci (2023);Experiment 3;Orientation
4;64;59;-5;0.648336000274867;2;18;150;1;Ozkirli & Pascucci (2023);Experiment 3;Orientation
4;7;13;6;1.11514190025628;2;57;151;1;Ozkirli & Pascucci (2023);Experiment 3;Orientation
4;133;97;-36;0.615128499921411;2;54;152;1;Ozkirli & Pascucci (2023);Experiment 3;Orientation
4;86;67;-19;0.806760899722576;2;47;153;1;Ozkirli & Pascucci (2023);Experiment 3;Orientation
4;119;117;-2;1.39847460016608;2;-33;154;1;Ozkirli & Pascucci (2023);Experiment 3;Orientation
4;74;68;-6;0.8816067003645;2;45;155;1;Ozkirli & Pascucci (2023);Experiment 3;Orientation
4;24;24;0;0.747957199811935;2;50;156;1;Ozkirli & Pascucci (2023);Experiment 3;Orientation
4;158;167;9;0.498442800249904;2;46;157;1;Ozkirli & Pascucci (2023);Experiment 3;Orientation
4;70;66;-4;0.706787100061774;2;88;158;1;Ozkirli & Pascucci (2023);Experiment 3;Orientation
4;92;106;14;0.665202199947089;2;-22;159;1;Ozkirli & Pascucci (2023);Experiment 3;Orientation
4;128;111;-17;0.77378229983151;2;-36;160;1;Ozkirli & Pascucci (2023);Experiment 3;Orientation
4;164;166;2;0.706658899784088;2;-36;161;1;Ozkirli & Pascucci (2023);Experiment 3;Orientation
4;140;13;53;0.773365200031549;2;24;162;1;Ozkirli & Pascucci (2023);Experiment 3;Orientation
4;176;159;-17;0.740238100290298;2;-36;163;1;Ozkirli & Pascucci (2023);Experiment 3;Orientation
4;146;146;0;0.865105899982154;2;30;164;1;Ozkirli & Pascucci (2023);Experiment 3;Orientation
4;83;67;-16;0.948699099943042;2;63;165;1;Ozkirli & Pascucci (2023);Experiment 3;Orientation
4;2;6;4;0.63177639991045;2;81;166;1;Ozkirli & Pascucci (2023);Experiment 3;Orientation
4;18;8;-10;1.00656089978293;2;-16;167;1;Ozkirli & Pascucci (2023);Experiment 3;Orientation
4;138;152;14;0.740197000093758;2;60;168;1;Ozkirli & Pascucci (2023);Experiment 3;Orientation
4;148;173;25;0.856842800043523;2;-10;169;1;Ozkirli & Pascucci (2023);Experiment 3;Orientation
4;54;24;-30;0.790198700036854;2;-86;170;1;Ozkirli & Pascucci (2023);Experiment 3;Orientation
4;173;154;-19;0.540104799903929;2;61;171;1;Ozkirli & Pascucci (2023);Experiment 3;Orientation
4;50;63;13;0.623597000259906;2;-57;172;1;Ozkirli & Pascucci (2023);Experiment 3;Orientation
4;83;97;14;0.839762199670076;2;-33;173;1;Ozkirli & Pascucci (2023);Experiment 3;Orientation
4;29;26;-3;0.823487400077283;2;54;174;1;Ozkirli & Pascucci (2023);Experiment 3;Orientation
4;142;121;-21;0.781811499968171;2;67;175;1;Ozkirli & Pascucci (2023);Experiment 3;Orientation
4;177;28;31;0.71515280008316;2;-35;176;1;Ozkirli & Pascucci (2023);Experiment 3;Orientation
4;20;18;-2;1.07354949973524;2;-23;177;1;Ozkirli & Pascucci (2023);Experiment 3;Orientation
4;119;101;-18;0.748307999689132;2;81;178;1;Ozkirli & Pascucci (2023);Experiment 3;Orientation
4;135;127;-8;0.79846359975636;2;-16;179;1;Ozkirli & Pascucci (2023);Experiment 3;Orientation
4;155;159;4;0.713882599957287;2;-20;180;1;Ozkirli & Pascucci (2023);Experiment 3;Orientation
4;138;125;-13;0.915134399663657;2;17;181;1;Ozkirli & Pascucci (2023);Experiment 3;Orientation
4;123;111;-12;0.731799999717623;2;15;182;1;Ozkirli & Pascucci (2023);Experiment 3;Orientation
4;170;7;17;1.12341949995607;2;-47;183;1;Ozkirli & Pascucci (2023);Experiment 3;Orientation
4;118;101;-17;0.757111199665815;2;52;184;1;Ozkirli & Pascucci (2023);Experiment 3;Orientation
4;99;120;21;0.740029099863023;2;19;185;1;Ozkirli & Pascucci (2023);Experiment 3;Orientation
4;113;17;84;0.564845900051296;2;-14;186;1;Ozkirli & Pascucci (2023);Experiment 3;Orientation
4;164;17;33;0.565870400052518;2;-51;187;1;Ozkirli & Pascucci (2023);Experiment 3;Orientation
4;150;149;-1;0.881818499881774;2;14;188;1;Ozkirli & Pascucci (2023);Experiment 3;Orientation
4;73;60;-13;0.948401700239629;2;77;189;1;Ozkirli & Pascucci (2023);Experiment 3;Orientation
4;51;61;10;0.740428999997675;2;22;190;1;Ozkirli & Pascucci (2023);Experiment 3;Orientation
4;161;165;4;0.656860099639744;2;70;191;1;Ozkirli & Pascucci (2023);Experiment 3;Orientation
4;79;64;-15;0.657210299745202;2;82;192;1;Ozkirli & Pascucci (2023);Experiment 3;Orientation
4;46;70;24;0.456895200069994;2;33;193;1;Ozkirli & Pascucci (2023);Experiment 3;Orientation
4;34;58;24;0.831725399941206;2;12;194;1;Ozkirli & Pascucci (2023);Experiment 3;Orientation
4;105;100;-5;0.540188900195062;2;-71;195;1;Ozkirli & Pascucci (2023);Experiment 3;Orientation
4;94;61;-33;0.740119300317019;2;11;196;1;Ozkirli & Pascucci (2023);Experiment 3;Orientation
4;9;10;1;0.915150000248104;2;85;197;1;Ozkirli & Pascucci (2023);Experiment 3;Orientation
4;170;169;-1;0.798587800003588;2;19;198;1;Ozkirli & Pascucci (2023);Experiment 3;Orientation
4;134;113;-21;0.632087000180036;2;36;199;1;Ozkirli & Pascucci (2023);Experiment 3;Orientation
4;125;49;-76;0.607014100067317;2;9;200;1;Ozkirli & Pascucci (2023);Experiment 3;Orientation
4;87;76;-11;0.915160399861634;3;38;201;0;Ozkirli & Pascucci (2023);Experiment 3;Orientation
4;102;99;-3;0.740364199969918;3;-15;202;0;Ozkirli & Pascucci (2023);Experiment 3;Orientation
4;101;87;-14;0.423810799606144;3;1;203;0;Ozkirli & Pascucci (2023);Experiment 3;Orientation
4;127;110;-17;0.723507900256664;3;-26;204;0;Ozkirli & Pascucci (2023);Experiment 3;Orientation
4;89;87;-2;0.523119200021029;3;38;205;0;Ozkirli & Pascucci (2023);Experiment 3;Orientation
4;36;65;29;0.965082199778408;3;53;206;0;Ozkirli & Pascucci (2023);Experiment 3;Orientation
4;116;120;4;0.581716400105506;3;-80;207;0;Ozkirli & Pascucci (2023);Experiment 3;Orientation
4;75;80;5;0.448509399779141;3;41;208;0;Ozkirli & Pascucci (2023);Experiment 3;Orientation
4;50;18;-32;0.865243500098586;3;25;209;0;Ozkirli & Pascucci (2023);Experiment 3;Orientation
4;172;173;1;0.773541799746454;3;58;210;0;Ozkirli & Pascucci (2023);Experiment 3;Orientation
4;144;165;21;0.873740100301802;3;28;211;0;Ozkirli & Pascucci (2023);Experiment 3;Orientation
4;88;66;-22;0.890180199872702;3;56;212;0;Ozkirli & Pascucci (2023);Experiment 3;Orientation
4;87;109;22;0.673531500156969;3;1;213;0;Ozkirli & Pascucci (2023);Experiment 3;Orientation
4;143;138;-5;0.70654569985345;3;-56;214;0;Ozkirli & Pascucci (2023);Experiment 3;Orientation
4;80;90;10;0.665249899961054;3;63;215;0;Ozkirli & Pascucci (2023);Experiment 3;Orientation
4;169;163;-6;0.6902573001571;3;-89;216;0;Ozkirli & Pascucci (2023);Experiment 3;Orientation
4;175;172;-3;0.548473900184035;3;-6;217;0;Ozkirli & Pascucci (2023);Experiment 3;Orientation
4;82;77;-5;0.548410899937153;3;-87;218;0;Ozkirli & Pascucci (2023);Experiment 3;Orientation
4;12;8;-4;0.590169200208038;3;70;219;0;Ozkirli & Pascucci (2023);Experiment 3;Orientation
4;177;174;-3;0.698486800305545;3;15;220;0;Ozkirli & Pascucci (2023);Experiment 3;Orientation
4;73;74;1;0.640148699749261;3;-76;221;0;Ozkirli & Pascucci (2023);Experiment 3;Orientation
4;67;74;7;0.731781200040132;3;6;222;0;Ozkirli & Pascucci (2023);Experiment 3;Orientation
4;138;155;17;0.706769899930805;3;-71;223;0;Ozkirli & Pascucci (2023);Experiment 3;Orientation
4;43;27;-16;0.806774999946356;3;-85;224;0;Ozkirli & Pascucci (2023);Experiment 3;Orientation
4;134;138;4;0.856864800211042;3;89;225;0;Ozkirli & Pascucci (2023);Experiment 3;Orientation
4;137;113;-24;0.87365539977327;3;-3;226;0;Ozkirli & Pascucci (2023);Experiment 3;Orientation
4;52;60;8;0.990204399917275;3;85;227;0;Ozkirli & Pascucci (2023);Experiment 3;Orientation
4;15;19;4;0.740140199661255;3;37;228;0;Ozkirli & Pascucci (2023);Experiment 3;Orientation
4;27;14;-13;0.781878099776804;3;-12;229;0;Ozkirli & Pascucci (2023);Experiment 3;Orientation
4;109;101;-8;0.956806699745357;3;-82;230;0;Ozkirli & Pascucci (2023);Experiment 3;Orientation
4;31;22;-9;0.698349600192159;3;78;231;0;Ozkirli & Pascucci (2023);Experiment 3;Orientation
4;37;24;-13;1.09006670024246;3;-6;232;0;Ozkirli & Pascucci (2023);Experiment 3;Orientation
4;46;55;9;0.823458299972117;3;-9;233;0;Ozkirli & Pascucci (2023);Experiment 3;Orientation
4;14;16;2;1.10666269995272;3;32;234;0;Ozkirli & Pascucci (2023);Experiment 3;Orientation
4;112;115;3;0.890107300132513;3;82;235;0;Ozkirli & Pascucci (2023);Experiment 3;Orientation
4;97;74;-23;0.856424900237471;3;15;236;0;Ozkirli & Pascucci (2023);Experiment 3;Orientation
4;82;71;-11;0.640362600330263;3;15;237;0;Ozkirli & Pascucci (2023);Experiment 3;Orientation
4;153;154;1;0.681704199872911;3;-71;238;0;Ozkirli & Pascucci (2023);Experiment 3;Orientation
4;86;79;-7;0.665103099774569;3;67;239;0;Ozkirli & Pascucci (2023);Experiment 3;Orientation
4;163;150;-13;1.05673329997808;3;-77;240;0;Ozkirli & Pascucci (2023);Experiment 3;Orientation
4;42;57;15;0.723469600081444;3;-59;241;0;Ozkirli & Pascucci (2023);Experiment 3;Orientation
4;52;62;10;0.70680330041796;3;-10;242;0;Ozkirli & Pascucci (2023);Experiment 3;Orientation
4;22;165;-37;0.690122300293297;3;30;243;0;Ozkirli & Pascucci (2023);Experiment 3;Orientation
4;50;58;8;0.631810999941081;3;-28;244;0;Ozkirli & Pascucci (2023);Experiment 3;Orientation
4;93;72;-21;0.815040700137615;3;-43;245;0;Ozkirli & Pascucci (2023);Experiment 3;Orientation
4;86;108;22;0.498443900141865;3;7;246;0;Ozkirli & Pascucci (2023);Experiment 3;Orientation
4;94;110;16;0.982119000051171;3;-8;247;0;Ozkirli & Pascucci (2023);Experiment 3;Orientation
4;95;35;-60;0.589966900181025;3;-1;248;0;Ozkirli & Pascucci (2023);Experiment 3;Orientation
4;68;47;-21;0.565134199801832;3;27;249;0;Ozkirli & Pascucci (2023);Experiment 3;Orientation
4;172;2;10;0.623175899963826;3;76;250;0;Ozkirli & Pascucci (2023);Experiment 3;Orientation
4;152;13;41;0.848411899991333;3;20;251;0;Ozkirli & Pascucci (2023);Experiment 3;Orientation
4;166;163;-3;0.548431700095534;3;-14;252;0;Ozkirli & Pascucci (2023);Experiment 3;Orientation
4;1;8;7;0.965163000393659;3;-15;253;0;Ozkirli & Pascucci (2023);Experiment 3;Orientation
4;99;113;14;0.690227600280195;3;82;254;0;Ozkirli & Pascucci (2023);Experiment 3;Orientation
4;162;169;7;0.790094799827784;3;-63;255;0;Ozkirli & Pascucci (2023);Experiment 3;Orientation
4;80;76;-4;1.00672439998016;3;82;256;0;Ozkirli & Pascucci (2023);Experiment 3;Orientation
4;114;100;-14;3.54843739978969;3;-34;257;0;Ozkirli & Pascucci (2023);Experiment 3;Orientation
4;50;62;12;0.639835000038147;3;64;258;0;Ozkirli & Pascucci (2023);Experiment 3;Orientation
4;108;105;-3;0.7650957996957;3;-58;259;0;Ozkirli & Pascucci (2023);Experiment 3;Orientation
4;2;170;-12;2.20685869967565;3;-74;260;0;Ozkirli & Pascucci (2023);Experiment 3;Orientation
4;107;78;-29;0.531922999769449;3;75;261;0;Ozkirli & Pascucci (2023);Experiment 3;Orientation
4;66;72;6;0.823450499679893;3;41;262;0;Ozkirli & Pascucci (2023);Experiment 3;Orientation
4;43;55;12;0.573629499878734;3;23;263;0;Ozkirli & Pascucci (2023);Experiment 3;Orientation
4;22;12;-10;0.798515799921006;3;21;264;0;Ozkirli & Pascucci (2023);Experiment 3;Orientation
4;38;32;-6;0.77351769991219;3;-16;265;0;Ozkirli & Pascucci (2023);Experiment 3;Orientation
4;152;164;12;0.58169940020889;3;66;266;0;Ozkirli & Pascucci (2023);Experiment 3;Orientation
4;116;97;-19;0.590124699752778;3;36;267;0;Ozkirli & Pascucci (2023);Experiment 3;Orientation
4;78;79;1;0.598493099678308;3;38;268;0;Ozkirli & Pascucci (2023);Experiment 3;Orientation
4;38;13;-25;0.848436099942774;3;40;269;0;Ozkirli & Pascucci (2023);Experiment 3;Orientation
4;29;10;-19;0.798649500124156;3;9;270;0;Ozkirli & Pascucci (2023);Experiment 3;Orientation
4;57;68;11;0.665214500389993;3;-28;271;0;Ozkirli & Pascucci (2023);Experiment 3;Orientation
4;83;80;-3;0.890098700299859;3;-26;272;0;Ozkirli & Pascucci (2023);Experiment 3;Orientation
4;61;66;5;0.581552000250667;3;22;273;0;Ozkirli & Pascucci (2023);Experiment 3;Orientation
4;175;173;-2;0.748493399936706;3;66;274;0;Ozkirli & Pascucci (2023);Experiment 3;Orientation
4;10;18;8;0.923457600176334;3;-15;275;0;Ozkirli & Pascucci (2023);Experiment 3;Orientation
4;171;178;7;1.74861310003325;3;19;276;0;Ozkirli & Pascucci (2023);Experiment 3;Orientation
4;24;14;-10;0.815269299782813;3;-33;277;0;Ozkirli & Pascucci (2023);Experiment 3;Orientation
4;53;70;17;0.723447300028056;3;-29;278;0;Ozkirli & Pascucci (2023);Experiment 3;Orientation
4;7;156;-31;1.10686449985951;3;46;279;0;Ozkirli & Pascucci (2023);Experiment 3;Orientation
4;149;160;11;0.665148899890482;3;38;280;0;Ozkirli & Pascucci (2023);Experiment 3;Orientation
4;25;25;0;1.08146770019084;3;-56;281;0;Ozkirli & Pascucci (2023);Experiment 3;Orientation
4;50;44;-6;0.898389500100166;3;-25;282;0;Ozkirli & Pascucci (2023);Experiment 3;Orientation
