obs;theta;resp;error;rt;block;delta;trial;cond;study;experiment;stimulus
1;142;164;22;1.57300889998442;1;NaN;1;1;Ozkirli & Pascucci (2023);Experiment 2;Orientation
1;138;176;38;2.28210860001855;1;4;2;1;Ozkirli & Pascucci (2023);Experiment 2;Orientation
1;86;82;-4;1.16489069996169;1;52;3;0;Ozkirli & Pascucci (2023);Experiment 2;Orientation
1;154;135;-19;1.76480900001479;1;-68;4;1;Ozkirli & Pascucci (2023);Experiment 2;Orientation
1;28;30;2;2.0482345999917;1;-54;5;0;Ozkirli & Pascucci (2023);Experiment 2;Orientation
1;18;7;-11;2.17288600001484;1;10;6;1;Ozkirli & Pascucci (2023);Experiment 2;Orientation
1;27;29;2;1.76495370001066;1;-9;7;1;Ozkirli & Pascucci (2023);Experiment 2;Orientation
1;172;178;6;1.10662729997421;1;35;8;0;Ozkirli & Pascucci (2023);Experiment 2;Orientation
1;20;12;-8;1.35657780000474;1;-28;9;0;Ozkirli & Pascucci (2023);Experiment 2;Orientation
1;80;82;2;1.06480420002481;1;-60;10;1;Ozkirli & Pascucci (2023);Experiment 2;Orientation
1;94;90;-4;1.96545920002973;1;-14;11;1;Ozkirli & Pascucci (2023);Experiment 2;Orientation
1;71;72;1;2.22303090000059;1;23;12;1;Ozkirli & Pascucci (2023);Experiment 2;Orientation
1;130;153;23;1.35697670001537;1;-59;13;1;Ozkirli & Pascucci (2023);Experiment 2;Orientation
1;28;28;0;0.989958200021647;1;-78;14;1;Ozkirli & Pascucci (2023);Experiment 2;Orientation
1;116;110;-6;1.65676400001394;1;-88;15;1;Ozkirli & Pascucci (2023);Experiment 2;Orientation
1;35;33;-2;1.20650349999778;1;81;16;1;Ozkirli & Pascucci (2023);Experiment 2;Orientation
1;46;41;-5;0.914816199976485;1;-11;17;0;Ozkirli & Pascucci (2023);Experiment 2;Orientation
1;89;84;-5;1.60617250000359;1;-43;18;0;Ozkirli & Pascucci (2023);Experiment 2;Orientation
1;133;130;-3;1.44003920000978;1;-44;19;0;Ozkirli & Pascucci (2023);Experiment 2;Orientation
1;169;169;0;0.948177099984605;1;-36;20;1;Ozkirli & Pascucci (2023);Experiment 2;Orientation
1;158;171;13;1.28982969996287;1;11;21;0;Ozkirli & Pascucci (2023);Experiment 2;Orientation
1;55;52;-3;1.70633280003676;1;-77;22;1;Ozkirli & Pascucci (2023);Experiment 2;Orientation
1;34;42;8;1.34814399998868;1;21;23;1;Ozkirli & Pascucci (2023);Experiment 2;Orientation
1;31;24;-7;1.39848989999155;1;3;24;0;Ozkirli & Pascucci (2023);Experiment 2;Orientation
1;140;113;-27;2.70659270003671;1;71;25;1;Ozkirli & Pascucci (2023);Experiment 2;Orientation
1;6;175;-11;1.29001380002592;1;-46;26;0;Ozkirli & Pascucci (2023);Experiment 2;Orientation
1;25;26;1;1.51486630004365;1;-19;27;0;Ozkirli & Pascucci (2023);Experiment 2;Orientation
1;102;94;-8;1.62384070002008;1;-77;28;1;Ozkirli & Pascucci (2023);Experiment 2;Orientation
1;107;111;4;1.56478580000112;1;-5;29;0;Ozkirli & Pascucci (2023);Experiment 2;Orientation
1;6;177;-9;1.24813339998946;1;-79;30;1;Ozkirli & Pascucci (2023);Experiment 2;Orientation
1;125;132;7;1.51493910001591;1;61;31;1;Ozkirli & Pascucci (2023);Experiment 2;Orientation
1;152;152;0;1.08991099998821;1;-27;32;0;Ozkirli & Pascucci (2023);Experiment 2;Orientation
1;116;138;22;2.20643439999549;1;36;33;0;Ozkirli & Pascucci (2023);Experiment 2;Orientation
1;178;1;3;0.964886499976274;1;-62;34;0;Ozkirli & Pascucci (2023);Experiment 2;Orientation
1;54;31;-23;1.18155410001054;1;-56;35;1;Ozkirli & Pascucci (2023);Experiment 2;Orientation
1;30;14;-16;1.1072034999961;1;24;36;1;Ozkirli & Pascucci (2023);Experiment 2;Orientation
1;119;125;6;1.50658789998852;1;-89;37;1;Ozkirli & Pascucci (2023);Experiment 2;Orientation
1;60;64;4;1.46574330003932;1;59;38;0;Ozkirli & Pascucci (2023);Experiment 2;Orientation
1;99;95;-4;1.32319389999611;1;-39;39;1;Ozkirli & Pascucci (2023);Experiment 2;Orientation
1;126;137;11;1.29061120003462;1;-27;40;1;Ozkirli & Pascucci (2023);Experiment 2;Orientation
1;172;179;7;1.27317780000158;2;-46;41;1;Ozkirli & Pascucci (2023);Experiment 2;Orientation
1;165;168;3;1.55713829997694;2;7;42;1;Ozkirli & Pascucci (2023);Experiment 2;Orientation
1;48;38;-10;1.12320520001231;2;-63;43;0;Ozkirli & Pascucci (2023);Experiment 2;Orientation
1;168;172;4;1.43983740004478;2;60;44;0;Ozkirli & Pascucci (2023);Experiment 2;Orientation
1;71;51;-20;0.898237299988978;2;-83;45;0;Ozkirli & Pascucci (2023);Experiment 2;Orientation
1;82;76;-6;1.51490880001802;2;-11;46;1;Ozkirli & Pascucci (2023);Experiment 2;Orientation
1;28;27;-1;1.3065792999696;2;54;47;1;Ozkirli & Pascucci (2023);Experiment 2;Orientation
1;93;89;-4;1.76506519998657;2;-65;48;1;Ozkirli & Pascucci (2023);Experiment 2;Orientation
1;17;11;-6;1.55688920000102;2;76;49;1;Ozkirli & Pascucci (2023);Experiment 2;Orientation
1;141;164;23;1.35653809999349;2;56;50;1;Ozkirli & Pascucci (2023);Experiment 2;Orientation
1;94;86;-8;2.07335399999283;2;47;51;0;Ozkirli & Pascucci (2023);Experiment 2;Orientation
1;7;161;-26;1.7981751000043;2;87;52;1;Ozkirli & Pascucci (2023);Experiment 2;Orientation
1;140;141;1;2.36479429999599;2;47;53;1;Ozkirli & Pascucci (2023);Experiment 2;Orientation
1;70;58;-12;1.43178249994526;2;70;54;1;Ozkirli & Pascucci (2023);Experiment 2;Orientation
1;128;141;13;1.4735177999828;2;-58;55;0;Ozkirli & Pascucci (2023);Experiment 2;Orientation
1;139;127;-12;1.29789119999623;2;-11;56;1;Ozkirli & Pascucci (2023);Experiment 2;Orientation
1;82;46;-36;1.09838490001857;2;57;57;1;Ozkirli & Pascucci (2023);Experiment 2;Orientation
1;166;161;-5;1.73161730001448;2;-84;58;1;Ozkirli & Pascucci (2023);Experiment 2;Orientation
1;52;57;5;1.27346870000474;2;-66;59;0;Ozkirli & Pascucci (2023);Experiment 2;Orientation
1;123;129;6;0.956655399990268;2;-71;60;1;Ozkirli & Pascucci (2023);Experiment 2;Orientation
1;22;12;-10;0.948811399983242;2;-79;61;1;Ozkirli & Pascucci (2023);Experiment 2;Orientation
1;94;92;-2;1.44845329999225;2;-72;62;1;Ozkirli & Pascucci (2023);Experiment 2;Orientation
1;53;50;-3;1.27390169998398;2;41;63;0;Ozkirli & Pascucci (2023);Experiment 2;Orientation
1;96;104;8;1.4065513999667;2;-43;64;1;Ozkirli & Pascucci (2023);Experiment 2;Orientation
1;47;52;5;0.964962199970614;2;49;65;1;Ozkirli & Pascucci (2023);Experiment 2;Orientation
1;32;26;-6;0.78164729999844;2;15;66;0;Ozkirli & Pascucci (2023);Experiment 2;Orientation
1;61;46;-15;0.923500599979889;2;-29;67;0;Ozkirli & Pascucci (2023);Experiment 2;Orientation
1;87;84;-3;1.38986409996869;2;-26;68;0;Ozkirli & Pascucci (2023);Experiment 2;Orientation
1;42;20;-22;0.830428699962795;2;45;69;1;Ozkirli & Pascucci (2023);Experiment 2;Orientation
1;31;16;-15;1.20651739998721;2;11;70;1;Ozkirli & Pascucci (2023);Experiment 2;Orientation
1;61;63;2;1.58151490002638;2;-30;71;1;Ozkirli & Pascucci (2023);Experiment 2;Orientation
1;141;138;-3;1.28156630002195;2;-80;72;1;Ozkirli & Pascucci (2023);Experiment 2;Orientation
1;9;179;-10;1.52314599999227;2;-48;73;0;Ozkirli & Pascucci (2023);Experiment 2;Orientation
1;39;27;-12;1.38988610001979;2;-30;74;0;Ozkirli & Pascucci (2023);Experiment 2;Orientation
1;107;92;-15;1.18994389998261;2;-68;75;1;Ozkirli & Pascucci (2023);Experiment 2;Orientation
1;64;80;16;1.94880120002199;2;43;76;1;Ozkirli & Pascucci (2023);Experiment 2;Orientation
1;6;176;-10;1.34828549996018;2;58;77;1;Ozkirli & Pascucci (2023);Experiment 2;Orientation
1;48;52;4;0.965303100005258;2;-42;78;0;Ozkirli & Pascucci (2023);Experiment 2;Orientation
1;34;46;12;2.05643449997297;2;14;79;1;Ozkirli & Pascucci (2023);Experiment 2;Orientation
1;129;111;-18;1.88983880000887;2;85;80;0;Ozkirli & Pascucci (2023);Experiment 2;Orientation
1;103;105;2;1.15649690001737;3;26;81;1;Ozkirli & Pascucci (2023);Experiment 2;Orientation
1;42;42;0;1.69849740003701;3;61;82;0;Ozkirli & Pascucci (2023);Experiment 2;Orientation
1;42;35;-7;1.66487510001753;3;0;83;1;Ozkirli & Pascucci (2023);Experiment 2;Orientation
1;63;64;1;0.989514899963979;3;-21;84;1;Ozkirli & Pascucci (2023);Experiment 2;Orientation
1;68;68;0;1.10655159997987;3;-5;85;0;Ozkirli & Pascucci (2023);Experiment 2;Orientation
1;46;66;20;1.01529839995783;3;22;86;0;Ozkirli & Pascucci (2023);Experiment 2;Orientation
1;52;75;23;1.17314029997215;3;-6;87;0;Ozkirli & Pascucci (2023);Experiment 2;Orientation
1;113;110;-3;1.84814489999553;3;-61;88;0;Ozkirli & Pascucci (2023);Experiment 2;Orientation
1;32;34;2;1.02324139996199;3;81;89;0;Ozkirli & Pascucci (2023);Experiment 2;Orientation
1;32;37;5;0.998158799950033;3;0;90;0;Ozkirli & Pascucci (2023);Experiment 2;Orientation
1;64;70;6;0.964911599992774;3;-32;91;0;Ozkirli & Pascucci (2023);Experiment 2;Orientation
1;144;155;11;1.37325210002018;3;-80;92;1;Ozkirli & Pascucci (2023);Experiment 2;Orientation
1;19;17;-2;1.78162259998498;3;-55;93;1;Ozkirli & Pascucci (2023);Experiment 2;Orientation
1;85;88;3;1.30671209999127;3;-66;94;1;Ozkirli & Pascucci (2023);Experiment 2;Orientation
1;48;65;17;0.831593299983069;3;37;95;0;Ozkirli & Pascucci (2023);Experiment 2;Orientation
1;1;169;-12;1.39941219997127;3;47;96;0;Ozkirli & Pascucci (2023);Experiment 2;Orientation
1;124;127;3;0.940131800016388;3;57;97;0;Ozkirli & Pascucci (2023);Experiment 2;Orientation
1;151;148;-3;0.873329399968497;3;-27;98;1;Ozkirli & Pascucci (2023);Experiment 2;Orientation
1;98;92;-6;1.09887350001372;3;53;99;1;Ozkirli & Pascucci (2023);Experiment 2;Orientation
1;29;23;-6;0.6983127000276;3;69;100;0;Ozkirli & Pascucci (2023);Experiment 2;Orientation
1;56;63;7;1.14860690000933;3;-27;101;0;Ozkirli & Pascucci (2023);Experiment 2;Orientation
1;150;141;-9;0.848778099985793;3;86;102;0;Ozkirli & Pascucci (2023);Experiment 2;Orientation
1;136;134;-2;1.12315509998007;3;14;103;1;Ozkirli & Pascucci (2023);Experiment 2;Orientation
1;158;168;10;1.39833489997545;3;-22;104;1;Ozkirli & Pascucci (2023);Experiment 2;Orientation
1;127;144;17;1.27339229994686;3;31;105;1;Ozkirli & Pascucci (2023);Experiment 2;Orientation
1;90;90;0;1.32323809998343;3;37;106;0;Ozkirli & Pascucci (2023);Experiment 2;Orientation
1;130;130;0;1.92307170003187;3;-40;107;0;Ozkirli & Pascucci (2023);Experiment 2;Orientation
1;84;82;-2;1.70695319998777;3;46;108;0;Ozkirli & Pascucci (2023);Experiment 2;Orientation
1;102;87;-15;1.39828829996986;3;-18;109;1;Ozkirli & Pascucci (2023);Experiment 2;Orientation
1;109;77;-32;1.66607700003078;3;-7;110;1;Ozkirli & Pascucci (2023);Experiment 2;Orientation
1;98;91;-7;3.05666160001419;3;11;111;0;Ozkirli & Pascucci (2023);Experiment 2;Orientation
1;164;154;-10;1.37346849997994;3;-66;112;1;Ozkirli & Pascucci (2023);Experiment 2;Orientation
1;135;127;-8;1.56487629999174;3;29;113;1;Ozkirli & Pascucci (2023);Experiment 2;Orientation
1;122;144;22;1.97320850001415;3;13;114;1;Ozkirli & Pascucci (2023);Experiment 2;Orientation
1;135;162;27;1.24895949999336;3;-13;115;1;Ozkirli & Pascucci (2023);Experiment 2;Orientation
1;72;82;10;2.31519100000151;3;63;116;0;Ozkirli & Pascucci (2023);Experiment 2;Orientation
1;31;9;-22;1.1482568999636;3;41;117;1;Ozkirli & Pascucci (2023);Experiment 2;Orientation
1;159;171;12;1.03184499999043;3;52;118;1;Ozkirli & Pascucci (2023);Experiment 2;Orientation
1;31;36;5;1.69816199998604;3;-52;119;0;Ozkirli & Pascucci (2023);Experiment 2;Orientation
1;176;179;3;1.53179219999583;3;35;120;0;Ozkirli & Pascucci (2023);Experiment 2;Orientation
1;54;55;1;1.32317879999755;4;-58;121;0;Ozkirli & Pascucci (2023);Experiment 2;Orientation
1;90;88;-2;2.34870849997969;4;-36;122;0;Ozkirli & Pascucci (2023);Experiment 2;Orientation
1;95;95;0;1.12325030000648;4;-5;123;1;Ozkirli & Pascucci (2023);Experiment 2;Orientation
1;106;98;-8;1.99816389998887;4;-11;124;1;Ozkirli & Pascucci (2023);Experiment 2;Orientation
1;85;84;-1;1.26551259995904;4;21;125;1;Ozkirli & Pascucci (2023);Experiment 2;Orientation
1;11;9;-2;2.11510560003808;4;74;126;0;Ozkirli & Pascucci (2023);Experiment 2;Orientation
1;54;61;7;1.88219380000373;4;-43;127;1;Ozkirli & Pascucci (2023);Experiment 2;Orientation
1;4;19;15;1.54876589996275;4;50;128;1;Ozkirli & Pascucci (2023);Experiment 2;Orientation
1;38;36;-2;1.05652460001875;4;-34;129;1;Ozkirli & Pascucci (2023);Experiment 2;Orientation
1;64;80;16;0.740176899998914;4;-26;130;1;Ozkirli & Pascucci (2023);Experiment 2;Orientation
1;163;150;-13;1.29823269997723;4;81;131;0;Ozkirli & Pascucci (2023);Experiment 2;Orientation
1;86;89;3;1.48155239998596;4;77;132;1;Ozkirli & Pascucci (2023);Experiment 2;Orientation
1;19;21;2;1.85658919997513;4;67;133;0;Ozkirli & Pascucci (2023);Experiment 2;Orientation
1;157;139;-18;1.20654570002807;4;42;134;1;Ozkirli & Pascucci (2023);Experiment 2;Orientation
1;167;168;1;2.16476660000626;4;-10;135;0;Ozkirli & Pascucci (2023);Experiment 2;Orientation
1;68;70;2;1.4238464999944;4;-81;136;0;Ozkirli & Pascucci (2023);Experiment 2;Orientation
1;111;111;0;1.53177230001893;4;-43;137;1;Ozkirli & Pascucci (2023);Experiment 2;Orientation
1;108;101;-7;1.67375889996765;4;3;138;0;Ozkirli & Pascucci (2023);Experiment 2;Orientation
1;53;46;-7;1.44823959999485;4;55;139;0;Ozkirli & Pascucci (2023);Experiment 2;Orientation
1;86;87;1;1.29821049998282;4;-33;140;1;Ozkirli & Pascucci (2023);Experiment 2;Orientation
1;71;82;11;1.14824219996808;4;15;141;1;Ozkirli & Pascucci (2023);Experiment 2;Orientation
1;52;57;5;1.18149240000639;4;19;142;0;Ozkirli & Pascucci (2023);Experiment 2;Orientation
1;1;179;-2;0.964830299955793;4;51;143;1;Ozkirli & Pascucci (2023);Experiment 2;Orientation
1;173;151;-22;0.86498539999593;4;8;144;1;Ozkirli & Pascucci (2023);Experiment 2;Orientation
1;166;155;-11;2.82370399998035;4;7;145;1;Ozkirli & Pascucci (2023);Experiment 2;Orientation
1;33;23;-10;1.70652860001428;4;-47;146;1;Ozkirli & Pascucci (2023);Experiment 2;Orientation
1;90;87;-3;2.45681399997557;4;-57;147;0;Ozkirli & Pascucci (2023);Experiment 2;Orientation
1;24;19;-5;0.882254999945872;4;66;148;0;Ozkirli & Pascucci (2023);Experiment 2;Orientation
1;28;27;-1;1.03988890000619;4;-4;149;1;Ozkirli & Pascucci (2023);Experiment 2;Orientation
1;175;174;-1;1.03988960001152;4;33;150;0;Ozkirli & Pascucci (2023);Experiment 2;Orientation
1;60;63;3;1.29820339998696;4;-65;151;1;Ozkirli & Pascucci (2023);Experiment 2;Orientation
1;159;146;-13;0.915497399982996;4;81;152;1;Ozkirli & Pascucci (2023);Experiment 2;Orientation
1;118;103;-15;0.606637799995951;4;41;153;1;Ozkirli & Pascucci (2023);Experiment 2;Orientation
1;12;6;-6;1.290503599972;4;-74;154;0;Ozkirli & Pascucci (2023);Experiment 2;Orientation
1;8;6;-2;1.6481736000278;4;4;155;0;Ozkirli & Pascucci (2023);Experiment 2;Orientation
1;99;91;-8;2.09001489996444;4;89;156;0;Ozkirli & Pascucci (2023);Experiment 2;Orientation
1;54;51;-3;1.05647979996866;4;45;157;0;Ozkirli & Pascucci (2023);Experiment 2;Orientation
1;60;68;8;1.33982880000258;4;-6;158;0;Ozkirli & Pascucci (2023);Experiment 2;Orientation
1;8;0;-8;1.73136489995522;4;52;159;0;Ozkirli & Pascucci (2023);Experiment 2;Orientation
1;171;169;-2;1.74035760003608;4;17;160;1;Ozkirli & Pascucci (2023);Experiment 2;Orientation
1;110;94;-16;2.8234122999711;5;61;161;1;Ozkirli & Pascucci (2023);Experiment 2;Orientation
1;73;77;4;1.94812529999763;5;37;162;0;Ozkirli & Pascucci (2023);Experiment 2;Orientation
1;33;23;-10;0.81496970000444;5;40;163;0;Ozkirli & Pascucci (2023);Experiment 2;Orientation
1;178;164;-14;1.08155440003611;5;35;164;1;Ozkirli & Pascucci (2023);Experiment 2;Orientation
1;116;115;-1;1.18158660002518;5;62;165;0;Ozkirli & Pascucci (2023);Experiment 2;Orientation
1;29;16;-13;1.48987550003221;5;87;166;0;Ozkirli & Pascucci (2023);Experiment 2;Orientation
1;155;166;11;1.06517040001927;5;54;167;1;Ozkirli & Pascucci (2023);Experiment 2;Orientation
1;150;153;3;1.26504069997463;5;5;168;0;Ozkirli & Pascucci (2023);Experiment 2;Orientation
1;64;56;-8;1.97312580002472;5;86;169;0;Ozkirli & Pascucci (2023);Experiment 2;Orientation
1;20;15;-5;1.54876250005327;5;44;170;1;Ozkirli & Pascucci (2023);Experiment 2;Orientation
1;55;60;5;1.69004030001815;5;-35;171;0;Ozkirli & Pascucci (2023);Experiment 2;Orientation
1;6;177;-9;1.05732419999549;5;49;172;1;Ozkirli & Pascucci (2023);Experiment 2;Orientation
1;115;112;-3;1.28192909999052;5;71;173;0;Ozkirli & Pascucci (2023);Experiment 2;Orientation
1;119;111;-8;1.16521220002323;5;-4;174;0;Ozkirli & Pascucci (2023);Experiment 2;Orientation
1;132;117;-15;2.05651890003355;5;-13;175;0;Ozkirli & Pascucci (2023);Experiment 2;Orientation
1;28;27;-1;1.25662659999216;5;-76;176;0;Ozkirli & Pascucci (2023);Experiment 2;Orientation
1;178;173;-5;1.19882940000389;5;30;177;0;Ozkirli & Pascucci (2023);Experiment 2;Orientation
1;70;75;5;1.09869940002682;5;-72;178;0;Ozkirli & Pascucci (2023);Experiment 2;Orientation
1;73;62;-11;1.34116399998311;5;-3;179;1;Ozkirli & Pascucci (2023);Experiment 2;Orientation
1;43;9;-34;0.998206199961714;5;30;180;1;Ozkirli & Pascucci (2023);Experiment 2;Orientation
1;62;34;-28;1.62353350000922;5;-19;181;1;Ozkirli & Pascucci (2023);Experiment 2;Orientation
1;70;66;-4;1.37362739996752;5;-8;182;0;Ozkirli & Pascucci (2023);Experiment 2;Orientation
1;121;130;9;1.72351139999228;5;-51;183;0;Ozkirli & Pascucci (2023);Experiment 2;Orientation
1;94;90;-4;1.3986868999782;5;27;184;1;Ozkirli & Pascucci (2023);Experiment 2;Orientation
1;41;26;-15;1.64014819997828;5;53;185;1;Ozkirli & Pascucci (2023);Experiment 2;Orientation
1;70;88;18;1.09831380000105;5;-29;186;0;Ozkirli & Pascucci (2023);Experiment 2;Orientation
1;159;167;8;1.05664439999964;5;-89;187;0;Ozkirli & Pascucci (2023);Experiment 2;Orientation
1;156;157;1;1.51517999998759;5;3;188;0;Ozkirli & Pascucci (2023);Experiment 2;Orientation
1;45;44;-1;1.10652050003409;5;-69;189;0;Ozkirli & Pascucci (2023);Experiment 2;Orientation
1;137;147;10;1.18992630002322;5;88;190;0;Ozkirli & Pascucci (2023);Experiment 2;Orientation
1;46;44;-2;1.03158449998591;5;-89;191;1;Ozkirli & Pascucci (2023);Experiment 2;Orientation
1;177;4;7;1.2564084000187;5;49;192;1;Ozkirli & Pascucci (2023);Experiment 2;Orientation
1;51;54;3;2.93966189998901;5;-54;193;0;Ozkirli & Pascucci (2023);Experiment 2;Orientation
1;127;64;-63;2.75653830001829;5;-76;194;0;Ozkirli & Pascucci (2023);Experiment 2;Orientation
1;66;84;18;1.43250029999763;5;61;195;1;Ozkirli & Pascucci (2023);Experiment 2;Orientation
1;71;89;18;2.18137530004606;5;-5;196;0;Ozkirli & Pascucci (2023);Experiment 2;Orientation
1;136;113;-23;1.1068858000217;5;-65;197;1;Ozkirli & Pascucci (2023);Experiment 2;Orientation
1;32;39;7;0.965205199958291;5;-76;198;0;Ozkirli & Pascucci (2023);Experiment 2;Orientation
1;146;139;-7;1.08989449997898;5;66;199;1;Ozkirli & Pascucci (2023);Experiment 2;Orientation
1;123;122;-1;0.815147500019521;5;23;200;1;Ozkirli & Pascucci (2023);Experiment 2;Orientation
1;115;100;-15;1.40692300000228;6;8;201;0;Ozkirli & Pascucci (2023);Experiment 2;Orientation
1;157;166;9;1.10658239998156;6;-42;202;1;Ozkirli & Pascucci (2023);Experiment 2;Orientation
1;37;41;4;2.10666960000526;6;-60;203;1;Ozkirli & Pascucci (2023);Experiment 2;Orientation
1;88;77;-11;1.43214140000055;6;-51;204;0;Ozkirli & Pascucci (2023);Experiment 2;Orientation
1;48;50;2;0.973393100022804;6;40;205;0;Ozkirli & Pascucci (2023);Experiment 2;Orientation
1;78;70;-8;1.05653970001731;6;-30;206;0;Ozkirli & Pascucci (2023);Experiment 2;Orientation
1;61;72;11;1.34828320000088;6;17;207;0;Ozkirli & Pascucci (2023);Experiment 2;Orientation
1;90;88;-2;0.84062350000022;6;-29;208;1;Ozkirli & Pascucci (2023);Experiment 2;Orientation
1;37;32;-5;1.1982554999995;6;53;209;0;Ozkirli & Pascucci (2023);Experiment 2;Orientation
1;31;38;7;1.3398748000036;6;6;210;1;Ozkirli & Pascucci (2023);Experiment 2;Orientation
1;171;158;-13;1.53998649999266;6;40;211;1;Ozkirli & Pascucci (2023);Experiment 2;Orientation
1;51;23;-28;1.57350009999936;6;-60;212;1;Ozkirli & Pascucci (2023);Experiment 2;Orientation
1;133;132;-1;0.981730200001039;6;-82;213;0;Ozkirli & Pascucci (2023);Experiment 2;Orientation
1;82;86;4;1.37390539998887;6;51;214;1;Ozkirli & Pascucci (2023);Experiment 2;Orientation
1;24;22;-2;1.08121129998472;6;58;215;0;Ozkirli & Pascucci (2023);Experiment 2;Orientation
1;62;65;3;1.34052169998176;6;-38;216;0;Ozkirli & Pascucci (2023);Experiment 2;Orientation
1;100;90;-10;0.765310599992517;6;-38;217;1;Ozkirli & Pascucci (2023);Experiment 2;Orientation
1;158;155;-3;1.33142390003195;6;-58;218;0;Ozkirli & Pascucci (2023);Experiment 2;Orientation
1;164;162;-2;1.32328100001905;6;-6;219;1;Ozkirli & Pascucci (2023);Experiment 2;Orientation
1;167;157;-10;0.998779100016691;6;-3;220;1;Ozkirli & Pascucci (2023);Experiment 2;Orientation
1;68;66;-2;0.831563999992795;6;-81;221;1;Ozkirli & Pascucci (2023);Experiment 2;Orientation
1;71;72;1;1.92463160003535;6;-3;222;0;Ozkirli & Pascucci (2023);Experiment 2;Orientation
1;13;18;5;1.11547080002492;6;58;223;0;Ozkirli & Pascucci (2023);Experiment 2;Orientation
1;172;168;-4;1.08148350002011;6;21;224;1;Ozkirli & Pascucci (2023);Experiment 2;Orientation
1;10;1;-9;1.18989829998463;6;-18;225;0;Ozkirli & Pascucci (2023);Experiment 2;Orientation
1;180;178;-2;1.23189789999742;6;10;226;1;Ozkirli & Pascucci (2023);Experiment 2;Orientation
1;126;109;-17;1.18151349999243;6;54;227;0;Ozkirli & Pascucci (2023);Experiment 2;Orientation
1;114;108;-6;1.11485280003399;6;12;228;0;Ozkirli & Pascucci (2023);Experiment 2;Orientation
1;13;12;-1;1.78983329999028;6;-79;229;0;Ozkirli & Pascucci (2023);Experiment 2;Orientation
1;146;156;10;1.45633790001739;6;47;230;0;Ozkirli & Pascucci (2023);Experiment 2;Orientation
1;93;92;-1;2.16470169997774;6;53;231;0;Ozkirli & Pascucci (2023);Experiment 2;Orientation
1;149;146;-3;1.32314210000914;6;-56;232;0;Ozkirli & Pascucci (2023);Experiment 2;Orientation
1;1;0;-1;1.71486190002179;6;-32;233;0;Ozkirli & Pascucci (2023);Experiment 2;Orientation
1;110;110;0;1.0982477000216;6;71;234;1;Ozkirli & Pascucci (2023);Experiment 2;Orientation
1;158;152;-6;1.73140350001631;6;-48;235;0;Ozkirli & Pascucci (2023);Experiment 2;Orientation
1;116;110;-6;1.71541770000476;6;42;236;1;Ozkirli & Pascucci (2023);Experiment 2;Orientation
1;92;89;-3;1.38984789996175;6;24;237;1;Ozkirli & Pascucci (2023);Experiment 2;Orientation
1;18;12;-6;2.32312429999001;6;74;238;1;Ozkirli & Pascucci (2023);Experiment 2;Orientation
1;179;178;-1;1.66570990002947;6;19;239;0;Ozkirli & Pascucci (2023);Experiment 2;Orientation
1;96;96;0;1.33149429998593;6;83;240;1;Ozkirli & Pascucci (2023);Experiment 2;Orientation
1;36;40;4;0.989721799967811;7;60;241;0;Ozkirli & Pascucci (2023);Experiment 2;Orientation
1;158;164;6;0.75693879998289;7;58;242;0;Ozkirli & Pascucci (2023);Experiment 2;Orientation
1;67;68;1;0.873229800025001;7;-89;243;0;Ozkirli & Pascucci (2023);Experiment 2;Orientation
1;27;36;9;1.28202909999527;7;40;244;1;Ozkirli & Pascucci (2023);Experiment 2;Orientation
1;118;106;-12;1.31485729996348;7;89;245;0;Ozkirli & Pascucci (2023);Experiment 2;Orientation
1;156;155;-1;1.26455820002593;7;-38;246;0;Ozkirli & Pascucci (2023);Experiment 2;Orientation
1;130;117;-13;1.40657099999953;7;26;247;0;Ozkirli & Pascucci (2023);Experiment 2;Orientation
1;142;130;-12;0.714910000038799;7;-12;248;0;Ozkirli & Pascucci (2023);Experiment 2;Orientation
1;161;4;23;1.94828849995974;7;-19;249;1;Ozkirli & Pascucci (2023);Experiment 2;Orientation
1;142;143;1;1.68225320003694;7;19;250;1;Ozkirli & Pascucci (2023);Experiment 2;Orientation
1;47;42;-5;0.740010100009385;7;-85;251;0;Ozkirli & Pascucci (2023);Experiment 2;Orientation
1;36;50;14;1.33164210000541;7;11;252;1;Ozkirli & Pascucci (2023);Experiment 2;Orientation
1;160;155;-5;1.35645159997512;7;56;253;0;Ozkirli & Pascucci (2023);Experiment 2;Orientation
1;84;91;7;1.50679089996265;7;76;254;1;Ozkirli & Pascucci (2023);Experiment 2;Orientation
1;173;176;3;1.37350629997673;7;-89;255;1;Ozkirli & Pascucci (2023);Experiment 2;Orientation
1;133;144;11;1.35680930002127;7;40;256;1;Ozkirli & Pascucci (2023);Experiment 2;Orientation
1;13;9;-4;1.60712909995345;7;-60;257;1;Ozkirli & Pascucci (2023);Experiment 2;Orientation
1;65;71;6;1.5648600999848;7;-52;258;1;Ozkirli & Pascucci (2023);Experiment 2;Orientation
1;24;26;2;1.55675690004136;7;41;259;1;Ozkirli & Pascucci (2023);Experiment 2;Orientation
1;47;31;-16;1.01675419998355;7;-23;260;0;Ozkirli & Pascucci (2023);Experiment 2;Orientation
1;119;114;-5;1.14824359997874;7;-72;261;0;Ozkirli & Pascucci (2023);Experiment 2;Orientation
1;62;60;-2;1.28160310001113;7;57;262;0;Ozkirli & Pascucci (2023);Experiment 2;Orientation
1;63;57;-6;1.30670419998933;7;-1;263;1;Ozkirli & Pascucci (2023);Experiment 2;Orientation
1;20;18;-2;1.1150058999774;7;43;264;0;Ozkirli & Pascucci (2023);Experiment 2;Orientation
1;90;78;-12;1.37357749999501;7;-70;265;1;Ozkirli & Pascucci (2023);Experiment 2;Orientation
1;151;150;-1;1.77310360001866;7;-61;266;0;Ozkirli & Pascucci (2023);Experiment 2;Orientation
1;165;156;-9;2.5063890000456;7;-14;267;0;Ozkirli & Pascucci (2023);Experiment 2;Orientation
1;154;131;-23;1.72351879999042;7;11;268;1;Ozkirli & Pascucci (2023);Experiment 2;Orientation
1;117;128;11;1.14019270002609;7;37;269;1;Ozkirli & Pascucci (2023);Experiment 2;Orientation
1;180;2;2;0.923355799983256;7;-63;270;0;Ozkirli & Pascucci (2023);Experiment 2;Orientation
1;167;154;-13;1.19014710001647;7;13;271;1;Ozkirli & Pascucci (2023);Experiment 2;Orientation
1;54;53;-1;1.23184120003134;7;-67;272;0;Ozkirli & Pascucci (2023);Experiment 2;Orientation
1;7;8;1;1.54820750001818;7;47;273;1;Ozkirli & Pascucci (2023);Experiment 2;Orientation
1;18;26;8;0.757234900025651;7;-11;274;1;Ozkirli & Pascucci (2023);Experiment 2;Orientation
1;145;161;16;0.906554199988022;7;53;275;1;Ozkirli & Pascucci (2023);Experiment 2;Orientation
1;16;25;9;1.2398587000207;7;-51;276;0;Ozkirli & Pascucci (2023);Experiment 2;Orientation
1;140;149;9;1.28996800002642;7;56;277;0;Ozkirli & Pascucci (2023);Experiment 2;Orientation
1;177;177;0;1.46475270000519;7;-37;278;0;Ozkirli & Pascucci (2023);Experiment 2;Orientation
1;18;26;8;1.09852729999693;7;-21;279;0;Ozkirli & Pascucci (2023);Experiment 2;Orientation
1;94;106;12;1.08161739999196;7;-76;280;1;Ozkirli & Pascucci (2023);Experiment 2;Orientation
1;116;108;-8;1.41547210002318;8;-22;281;0;Ozkirli & Pascucci (2023);Experiment 2;Orientation
1;22;24;2;1.14849059999688;8;-86;282;1;Ozkirli & Pascucci (2023);Experiment 2;Orientation
1;160;168;8;1.34809589997167;8;42;283;1;Ozkirli & Pascucci (2023);Experiment 2;Orientation
1;134;146;12;1.04860810004175;8;26;284;0;Ozkirli & Pascucci (2023);Experiment 2;Orientation
1;146;178;32;1.48187180003151;8;-12;285;1;Ozkirli & Pascucci (2023);Experiment 2;Orientation
1;77;72;-5;1.65657739999006;8;69;286;1;Ozkirli & Pascucci (2023);Experiment 2;Orientation
1;50;64;14;1.21546849998413;8;27;287;0;Ozkirli & Pascucci (2023);Experiment 2;Orientation
1;141;137;-4;1.07388380001066;8;89;288;0;Ozkirli & Pascucci (2023);Experiment 2;Orientation
1;4;7;3;1.30669749999652;8;-43;289;1;Ozkirli & Pascucci (2023);Experiment 2;Orientation
1;126;139;13;1.6232373000239;8;58;290;1;Ozkirli & Pascucci (2023);Experiment 2;Orientation
1;28;31;3;0.956731700047385;8;-82;291;0;Ozkirli & Pascucci (2023);Experiment 2;Orientation
1;122;118;-4;2.03168840002036;8;86;292;0;Ozkirli & Pascucci (2023);Experiment 2;Orientation
1;56;62;6;1.13124210003298;8;66;293;1;Ozkirli & Pascucci (2023);Experiment 2;Orientation
1;114;122;8;0.914869600033853;8;-58;294;0;Ozkirli & Pascucci (2023);Experiment 2;Orientation
1;64;85;21;0.990272099967115;8;50;295;0;Ozkirli & Pascucci (2023);Experiment 2;Orientation
1;56;59;3;1.78174440003932;8;8;296;0;Ozkirli & Pascucci (2023);Experiment 2;Orientation
1;37;45;8;1.16490590001922;8;19;297;1;Ozkirli & Pascucci (2023);Experiment 2;Orientation
1;74;68;-6;1.15663089998998;8;-37;298;0;Ozkirli & Pascucci (2023);Experiment 2;Orientation
1;31;36;5;1.11495319998357;8;43;299;0;Ozkirli & Pascucci (2023);Experiment 2;Orientation
1;79;80;1;1.34000019996893;8;-48;300;1;Ozkirli & Pascucci (2023);Experiment 2;Orientation
1;155;168;13;0.690360600012355;8;-76;301;0;Ozkirli & Pascucci (2023);Experiment 2;Orientation
1;27;25;-2;1.99816969997482;8;-52;302;0;Ozkirli & Pascucci (2023);Experiment 2;Orientation
1;101;96;-5;1.78154759999597;8;-74;303;1;Ozkirli & Pascucci (2023);Experiment 2;Orientation
1;69;81;12;1.12351830000989;8;32;304;1;Ozkirli & Pascucci (2023);Experiment 2;Orientation
1;20;21;1;1.63981759996386;8;49;305;1;Ozkirli & Pascucci (2023);Experiment 2;Orientation
1;77;81;4;1.35650270001497;8;-57;306;0;Ozkirli & Pascucci (2023);Experiment 2;Orientation
1;73;79;6;1.69847609999124;8;4;307;0;Ozkirli & Pascucci (2023);Experiment 2;Orientation
1;157;152;-5;1.62324640003499;8;-84;308;1;Ozkirli & Pascucci (2023);Experiment 2;Orientation
1;104;93;-11;1.53148409997812;8;53;309;1;Ozkirli & Pascucci (2023);Experiment 2;Orientation
1;105;112;7;1.90653889998794;8;-1;310;0;Ozkirli & Pascucci (2023);Experiment 2;Orientation
1;106;109;3;1.3566307000001;8;-1;311;1;Ozkirli & Pascucci (2023);Experiment 2;Orientation
1;133;105;-28;1.86551430000691;8;-27;312;1;Ozkirli & Pascucci (2023);Experiment 2;Orientation
1;46;48;2;1.03167719999328;8;87;313;0;Ozkirli & Pascucci (2023);Experiment 2;Orientation
1;84;100;16;2.13138179999078;8;-38;314;1;Ozkirli & Pascucci (2023);Experiment 2;Orientation
1;20;26;6;1.24804999999469;8;64;315;0;Ozkirli & Pascucci (2023);Experiment 2;Orientation
1;32;45;13;0.98976650001714;8;-12;316;1;Ozkirli & Pascucci (2023);Experiment 2;Orientation
1;94;95;1;1.70667310000863;8;-62;317;0;Ozkirli & Pascucci (2023);Experiment 2;Orientation
1;32;7;-25;1.2062592000002;8;62;318;1;Ozkirli & Pascucci (2023);Experiment 2;Orientation
1;83;84;1;1.03994440002134;8;-51;319;0;Ozkirli & Pascucci (2023);Experiment 2;Orientation
1;43;58;15;1.04012899997178;8;40;320;0;Ozkirli & Pascucci (2023);Experiment 2;Orientation
1;35;40;5;1.62315810000291;9;8;321;0;Ozkirli & Pascucci (2023);Experiment 2;Orientation
1;104;106;2;1.09851700003492;9;-69;322;0;Ozkirli & Pascucci (2023);Experiment 2;Orientation
1;2;167;-15;1.06495929998346;9;-78;323;1;Ozkirli & Pascucci (2023);Experiment 2;Orientation
1;126;139;13;0.989781700016465;9;56;324;1;Ozkirli & Pascucci (2023);Experiment 2;Orientation
1;79;77;-2;1.37320090003777;9;47;325;0;Ozkirli & Pascucci (2023);Experiment 2;Orientation
1;59;72;13;1.10651359998155;9;20;326;1;Ozkirli & Pascucci (2023);Experiment 2;Orientation
1;119;103;-16;1.66477119998308;9;-60;327;1;Ozkirli & Pascucci (2023);Experiment 2;Orientation
1;40;47;7;1.24908310000319;9;79;328;1;Ozkirli & Pascucci (2023);Experiment 2;Orientation
1;16;10;-6;1.6148304999806;9;24;329;1;Ozkirli & Pascucci (2023);Experiment 2;Orientation
1;86;80;-6;1.473612999951;9;-70;330;0;Ozkirli & Pascucci (2023);Experiment 2;Orientation
1;54;62;8;0.931433599966113;9;32;331;0;Ozkirli & Pascucci (2023);Experiment 2;Orientation
1;130;127;-3;1.28194740001345;9;-76;332;0;Ozkirli & Pascucci (2023);Experiment 2;Orientation
1;90;99;9;0.931641000031959;9;40;333;1;Ozkirli & Pascucci (2023);Experiment 2;Orientation
1;15;20;5;1.1232003000332;9;75;334;1;Ozkirli & Pascucci (2023);Experiment 2;Orientation
1;147;150;3;0.939955000008922;9;48;335;1;Ozkirli & Pascucci (2023);Experiment 2;Orientation
1;57;50;-7;1.11555049999151;9;90;336;0;Ozkirli & Pascucci (2023);Experiment 2;Orientation
1;50;44;-6;1.23155729996506;9;7;337;1;Ozkirli & Pascucci (2023);Experiment 2;Orientation
1;100;89;-11;0.940273799991701;9;-50;338;0;Ozkirli & Pascucci (2023);Experiment 2;Orientation
1;137;134;-3;1.0649384999997;9;-37;339;0;Ozkirli & Pascucci (2023);Experiment 2;Orientation
1;16;27;11;1.29013360000681;9;-59;340;1;Ozkirli & Pascucci (2023);Experiment 2;Orientation
1;140;137;-3;1.30718689999776;9;56;341;0;Ozkirli & Pascucci (2023);Experiment 2;Orientation
1;88;87;-1;1.49817899998743;9;52;342;1;Ozkirli & Pascucci (2023);Experiment 2;Orientation
1;80;83;3;1.43180969997775;9;8;343;0;Ozkirli & Pascucci (2023);Experiment 2;Orientation
1;56;77;21;1.64008430001559;9;24;344;0;Ozkirli & Pascucci (2023);Experiment 2;Orientation
1;154;161;7;1.4904543000157;9;82;345;0;Ozkirli & Pascucci (2023);Experiment 2;Orientation
1;165;168;3;1.49823129997822;9;-11;346;0;Ozkirli & Pascucci (2023);Experiment 2;Orientation
1;15;20;5;1.03124670003308;9;-30;347;1;Ozkirli & Pascucci (2023);Experiment 2;Orientation
1;159;165;6;1.57365089998348;9;36;348;0;Ozkirli & Pascucci (2023);Experiment 2;Orientation
1;66;61;-5;2.23980139999185;9;-87;349;0;Ozkirli & Pascucci (2023);Experiment 2;Orientation
1;44;49;5;1.77342270000372;9;22;350;0;Ozkirli & Pascucci (2023);Experiment 2;Orientation
1;43;41;-2;1.49779529997613;9;1;351;1;Ozkirli & Pascucci (2023);Experiment 2;Orientation
1;119;126;7;1.07342390000122;9;-76;352;0;Ozkirli & Pascucci (2023);Experiment 2;Orientation
1;9;4;-5;1.19890429999214;9;-70;353;1;Ozkirli & Pascucci (2023);Experiment 2;Orientation
1;176;178;2;1.74017289996846;9;13;354;0;Ozkirli & Pascucci (2023);Experiment 2;Orientation
1;140;158;18;1.24821819999488;9;36;355;1;Ozkirli & Pascucci (2023);Experiment 2;Orientation
1;134;138;4;1.47286790004;9;6;356;0;Ozkirli & Pascucci (2023);Experiment 2;Orientation
1;15;21;6;1.21483999997145;9;-61;357;1;Ozkirli & Pascucci (2023);Experiment 2;Orientation
1;45;57;12;1.33986700000241;9;-30;358;1;Ozkirli & Pascucci (2023);Experiment 2;Orientation
1;92;95;3;1.02321519999532;9;-47;359;1;Ozkirli & Pascucci (2023);Experiment 2;Orientation
1;90;85;-5;1.43981450004503;9;2;360;1;Ozkirli & Pascucci (2023);Experiment 2;Orientation
1;175;1;6;1.59814740001457;10;-85;361;0;Ozkirli & Pascucci (2023);Experiment 2;Orientation
1;133;118;-15;1.82344700000249;10;42;362;0;Ozkirli & Pascucci (2023);Experiment 2;Orientation
1;35;37;2;1.01514720002888;10;-82;363;0;Ozkirli & Pascucci (2023);Experiment 2;Orientation
1;14;14;0;1.24836130003678;10;21;364;0;Ozkirli & Pascucci (2023);Experiment 2;Orientation
1;156;162;6;0.990201000007801;10;38;365;1;Ozkirli & Pascucci (2023);Experiment 2;Orientation
1;115;92;-23;0.848347099963576;10;41;366;1;Ozkirli & Pascucci (2023);Experiment 2;Orientation
1;13;17;4;1.99811660003616;10;-78;367;0;Ozkirli & Pascucci (2023);Experiment 2;Orientation
1;54;43;-11;1.12309909996111;10;-41;368;1;Ozkirli & Pascucci (2023);Experiment 2;Orientation
1;50;49;-1;1.22347289999016;10;4;369;0;Ozkirli & Pascucci (2023);Experiment 2;Orientation
1;16;165;-31;1.19862079998711;10;34;370;1;Ozkirli & Pascucci (2023);Experiment 2;Orientation
1;2;3;1;1.5066489999881;10;14;371;0;Ozkirli & Pascucci (2023);Experiment 2;Orientation
1;35;43;8;0.881952999974601;10;-33;372;1;Ozkirli & Pascucci (2023);Experiment 2;Orientation
1;39;47;8;1.08188989997143;10;-4;373;0;Ozkirli & Pascucci (2023);Experiment 2;Orientation
1;32;13;-19;1.0232480999548;10;7;374;1;Ozkirli & Pascucci (2023);Experiment 2;Orientation
1;154;151;-3;1.13999039999908;10;58;375;0;Ozkirli & Pascucci (2023);Experiment 2;Orientation
1;44;55;11;1.32315200002631;10;-70;376;1;Ozkirli & Pascucci (2023);Experiment 2;Orientation
1;158;150;-8;1.98189290001756;10;66;377;0;Ozkirli & Pascucci (2023);Experiment 2;Orientation
1;122;115;-7;1.19871930003865;10;36;378;0;Ozkirli & Pascucci (2023);Experiment 2;Orientation
1;173;178;5;1.55672190000769;10;-51;379;0;Ozkirli & Pascucci (2023);Experiment 2;Orientation
1;141;145;4;1.22351859998889;10;32;380;0;Ozkirli & Pascucci (2023);Experiment 2;Orientation
1;129;139;10;1.07394060003571;10;12;381;1;Ozkirli & Pascucci (2023);Experiment 2;Orientation
1;86;88;2;1.98155060003046;10;43;382;0;Ozkirli & Pascucci (2023);Experiment 2;Orientation
1;5;7;2;1.43199860001914;10;81;383;0;Ozkirli & Pascucci (2023);Experiment 2;Orientation
1;49;29;-20;1.24877550004749;10;-44;384;1;Ozkirli & Pascucci (2023);Experiment 2;Orientation
1;10;14;4;1.05742929998087;10;39;385;0;Ozkirli & Pascucci (2023);Experiment 2;Orientation
1;169;179;10;1.28190309996717;10;21;386;1;Ozkirli & Pascucci (2023);Experiment 2;Orientation
1;174;176;2;1.41527009999845;10;-5;387;0;Ozkirli & Pascucci (2023);Experiment 2;Orientation
1;93;92;-1;1.63195400004042;10;81;388;1;Ozkirli & Pascucci (2023);Experiment 2;Orientation
1;118;119;1;1.38147469999967;10;-25;389;0;Ozkirli & Pascucci (2023);Experiment 2;Orientation
1;94;79;-15;2.25713050004561;10;24;390;1;Ozkirli & Pascucci (2023);Experiment 2;Orientation
1;128;128;0;1.88991229998646;10;-34;391;1;Ozkirli & Pascucci (2023);Experiment 2;Orientation
1;174;179;5;1.23997709999094;10;-46;392;0;Ozkirli & Pascucci (2023);Experiment 2;Orientation
1;180;9;9;1.69819929997902;10;-6;393;1;Ozkirli & Pascucci (2023);Experiment 2;Orientation
1;75;85;10;1.65655769995647;10;-75;394;0;Ozkirli & Pascucci (2023);Experiment 2;Orientation
1;23;4;-19;1.46497090003686;10;52;395;1;Ozkirli & Pascucci (2023);Experiment 2;Orientation
1;152;159;7;1.5820834999904;10;51;396;1;Ozkirli & Pascucci (2023);Experiment 2;Orientation
1;59;31;-28;1.49806470004842;10;-87;397;0;Ozkirli & Pascucci (2023);Experiment 2;Orientation
1;137;137;0;0.91527340002358;10;-78;398;1;Ozkirli & Pascucci (2023);Experiment 2;Orientation
1;162;164;2;1.14817559998482;10;-25;399;0;Ozkirli & Pascucci (2023);Experiment 2;Orientation
1;67;52;-15;1.30649069999345;10;-85;400;1;Ozkirli & Pascucci (2023);Experiment 2;Orientation
3;174;175;1;1.46480529999826;1;NaN;1;0;Ozkirli & Pascucci (2023);Experiment 2;Orientation
3;171;175;4;1.56531839998206;1;3;2;1;Ozkirli & Pascucci (2023);Experiment 2;Orientation
3;125;141;16;1.04855030000908;1;46;3;0;Ozkirli & Pascucci (2023);Experiment 2;Orientation
3;119;125;6;0.789869599975646;1;6;4;0;Ozkirli & Pascucci (2023);Experiment 2;Orientation
3;173;173;0;1.26494240004104;1;-54;5;1;Ozkirli & Pascucci (2023);Experiment 2;Orientation
3;167;140;-27;1.35677489999216;1;6;6;1;Ozkirli & Pascucci (2023);Experiment 2;Orientation
3;68;65;-3;1.30663270002697;1;-81;7;1;Ozkirli & Pascucci (2023);Experiment 2;Orientation
3;104;103;-1;0.774080200004391;1;-36;8;1;Ozkirli & Pascucci (2023);Experiment 2;Orientation
3;52;63;11;0.98985030001495;1;52;9;0;Ozkirli & Pascucci (2023);Experiment 2;Orientation
3;10;18;8;1.88149330002489;1;42;10;0;Ozkirli & Pascucci (2023);Experiment 2;Orientation
3;168;1;13;0.964946000021882;1;22;11;1;Ozkirli & Pascucci (2023);Experiment 2;Orientation
3;9;16;7;1.27344079996692;1;-21;12;0;Ozkirli & Pascucci (2023);Experiment 2;Orientation
3;4;0;-4;1.27354020002531;1;5;13;0;Ozkirli & Pascucci (2023);Experiment 2;Orientation
3;171;170;-1;0.498304699955042;1;13;14;1;Ozkirli & Pascucci (2023);Experiment 2;Orientation
3;38;38;0;1.07329909998225;1;-47;15;0;Ozkirli & Pascucci (2023);Experiment 2;Orientation
3;108;114;6;1.15703190001659;1;-70;16;0;Ozkirli & Pascucci (2023);Experiment 2;Orientation
3;159;160;1;0.966202599985991;1;-51;17;1;Ozkirli & Pascucci (2023);Experiment 2;Orientation
3;173;161;-12;1.17324309999822;1;-14;18;0;Ozkirli & Pascucci (2023);Experiment 2;Orientation
3;169;167;-2;1.40652079996653;1;4;19;0;Ozkirli & Pascucci (2023);Experiment 2;Orientation
3;142;138;-4;0.864997500029858;1;27;20;0;Ozkirli & Pascucci (2023);Experiment 2;Orientation
3;59;49;-10;1.09032259997912;1;83;21;0;Ozkirli & Pascucci (2023);Experiment 2;Orientation
3;98;90;-8;1.02357319998555;1;-39;22;1;Ozkirli & Pascucci (2023);Experiment 2;Orientation
3;15;21;6;0.898321399989072;1;83;23;1;Ozkirli & Pascucci (2023);Experiment 2;Orientation
3;147;134;-13;1.32394039997598;1;48;24;1;Ozkirli & Pascucci (2023);Experiment 2;Orientation
3;141;140;-1;0.989928300026804;1;6;25;1;Ozkirli & Pascucci (2023);Experiment 2;Orientation
3;77;71;-6;1.11506989999907;1;64;26;0;Ozkirli & Pascucci (2023);Experiment 2;Orientation
3;170;149;-21;0.981617899960838;1;87;27;1;Ozkirli & Pascucci (2023);Experiment 2;Orientation
3;128;139;11;1.01518500002567;1;42;28;0;Ozkirli & Pascucci (2023);Experiment 2;Orientation
3;46;35;-11;0.482058299996424;1;82;29;1;Ozkirli & Pascucci (2023);Experiment 2;Orientation
3;106;111;5;1.00691219995497;1;-60;30;0;Ozkirli & Pascucci (2023);Experiment 2;Orientation
3;8;5;-3;1.17373779998161;1;-82;31;1;Ozkirli & Pascucci (2023);Experiment 2;Orientation
3;112;105;-7;1.04821370000718;1;76;32;1;Ozkirli & Pascucci (2023);Experiment 2;Orientation
3;48;51;3;1.49003199994331;1;64;33;1;Ozkirli & Pascucci (2023);Experiment 2;Orientation
3;108;102;-6;1.14850750000915;1;-60;34;0;Ozkirli & Pascucci (2023);Experiment 2;Orientation
3;30;20;-10;1.32358020002721;1;78;35;0;Ozkirli & Pascucci (2023);Experiment 2;Orientation
3;144;144;0;0.931568300002255;1;66;36;0;Ozkirli & Pascucci (2023);Experiment 2;Orientation
3;9;6;-3;1.04868459998397;1;-45;37;1;Ozkirli & Pascucci (2023);Experiment 2;Orientation
3;180;6;6;0.773264000017662;1;9;38;0;Ozkirli & Pascucci (2023);Experiment 2;Orientation
3;156;153;-3;1.14859749999596;1;24;39;1;Ozkirli & Pascucci (2023);Experiment 2;Orientation
3;43;51;8;0.897924999997485;1;-67;40;1;Ozkirli & Pascucci (2023);Experiment 2;Orientation
3;36;44;8;0.981589099974371;2;7;41;0;Ozkirli & Pascucci (2023);Experiment 2;Orientation
3;38;33;-5;0.456782199966256;2;-2;42;1;Ozkirli & Pascucci (2023);Experiment 2;Orientation
3;77;89;12;0.848303199978545;2;-39;43;1;Ozkirli & Pascucci (2023);Experiment 2;Orientation
3;129;117;-12;0.848913099966012;2;-52;44;1;Ozkirli & Pascucci (2023);Experiment 2;Orientation
3;45;61;16;0.639936699997634;2;84;45;1;Ozkirli & Pascucci (2023);Experiment 2;Orientation
3;145;129;-16;1.09023730002809;2;80;46;1;Ozkirli & Pascucci (2023);Experiment 2;Orientation
3;180;1;1;0.898458299983758;2;-35;47;1;Ozkirli & Pascucci (2023);Experiment 2;Orientation
3;8;2;-6;1.05656509997789;2;-8;48;1;Ozkirli & Pascucci (2023);Experiment 2;Orientation
3;95;108;13;1.05696139996871;2;-87;49;1;Ozkirli & Pascucci (2023);Experiment 2;Orientation
3;115;133;18;1.93170719995396;2;-20;50;1;Ozkirli & Pascucci (2023);Experiment 2;Orientation
3;146;149;3;4.66416179999942;2;-31;51;0;Ozkirli & Pascucci (2023);Experiment 2;Orientation
3;49;55;6;0.832215700007509;2;-83;52;0;Ozkirli & Pascucci (2023);Experiment 2;Orientation
3;98;88;-10;1.27317140001105;2;-49;53;0;Ozkirli & Pascucci (2023);Experiment 2;Orientation
3;180;173;-7;0.990127499972004;2;-82;54;1;Ozkirli & Pascucci (2023);Experiment 2;Orientation
3;102;113;11;0.773267400043551;2;78;55;0;Ozkirli & Pascucci (2023);Experiment 2;Orientation
3;93;93;0;1.33995639998466;2;9;56;0;Ozkirli & Pascucci (2023);Experiment 2;Orientation
3;150;153;3;1.18981710000662;2;-57;57;0;Ozkirli & Pascucci (2023);Experiment 2;Orientation
3;161;165;4;0.681584899954032;2;-11;58;0;Ozkirli & Pascucci (2023);Experiment 2;Orientation
3;46;44;-2;0.914831000030972;2;-65;59;0;Ozkirli & Pascucci (2023);Experiment 2;Orientation
3;163;164;1;0.556662899965886;2;63;60;1;Ozkirli & Pascucci (2023);Experiment 2;Orientation
3;113;130;17;0.698483499989379;2;50;61;0;Ozkirli & Pascucci (2023);Experiment 2;Orientation
3;39;42;3;0.598127999983262;2;74;62;0;Ozkirli & Pascucci (2023);Experiment 2;Orientation
3;32;48;16;1.40652680001222;2;7;63;1;Ozkirli & Pascucci (2023);Experiment 2;Orientation
3;1;10;9;0.956539100036025;2;31;64;1;Ozkirli & Pascucci (2023);Experiment 2;Orientation
3;75;76;1;1.08156949997647;2;-74;65;1;Ozkirli & Pascucci (2023);Experiment 2;Orientation
3;30;40;10;1.098238400009;2;45;66;1;Ozkirli & Pascucci (2023);Experiment 2;Orientation
3;136;123;-13;1.18222959997365;2;74;67;1;Ozkirli & Pascucci (2023);Experiment 2;Orientation
3;171;174;3;1.67329820001032;2;-35;68;0;Ozkirli & Pascucci (2023);Experiment 2;Orientation
3;133;145;12;1.32326059998013;2;38;69;0;Ozkirli & Pascucci (2023);Experiment 2;Orientation
3;62;49;-13;0.981605999986641;2;71;70;0;Ozkirli & Pascucci (2023);Experiment 2;Orientation
3;14;6;-8;1.15665460005403;2;48;71;0;Ozkirli & Pascucci (2023);Experiment 2;Orientation
3;45;33;-12;0.631919500010554;2;-31;72;0;Ozkirli & Pascucci (2023);Experiment 2;Orientation
3;164;162;-2;0.806933199986815;2;61;73;0;Ozkirli & Pascucci (2023);Experiment 2;Orientation
3;136;141;5;0.556866900005843;2;28;74;1;Ozkirli & Pascucci (2023);Experiment 2;Orientation
3;100;9;89;1.75608230003854;2;36;75;1;Ozkirli & Pascucci (2023);Experiment 2;Orientation
3;167;174;7;0.73985630000243;2;-67;76;0;Ozkirli & Pascucci (2023);Experiment 2;Orientation
3;65;62;-3;1.23154000000795;2;-78;77;1;Ozkirli & Pascucci (2023);Experiment 2;Orientation
3;124;128;4;0.823284599988256;2;-59;78;1;Ozkirli & Pascucci (2023);Experiment 2;Orientation
3;15;19;4;1.37322839995613;2;-71;79;0;Ozkirli & Pascucci (2023);Experiment 2;Orientation
3;166;160;-6;1.23147230001632;2;29;80;0;Ozkirli & Pascucci (2023);Experiment 2;Orientation
3;119;121;2;0.548521800024901;3;47;81;0;Ozkirli & Pascucci (2023);Experiment 2;Orientation
3;22;5;-17;1.09822089999216;3;-83;82;0;Ozkirli & Pascucci (2023);Experiment 2;Orientation
3;99;81;-18;0.83192050002981;3;-77;83;1;Ozkirli & Pascucci (2023);Experiment 2;Orientation
3;137;126;-11;0.47421580000082;3;-38;84;1;Ozkirli & Pascucci (2023);Experiment 2;Orientation
3;148;152;4;1.4982527999673;3;-11;85;1;Ozkirli & Pascucci (2023);Experiment 2;Orientation
3;76;157;81;0.82358889997704;3;72;86;0;Ozkirli & Pascucci (2023);Experiment 2;Orientation
3;35;24;-11;0.53166819998296;3;41;87;0;Ozkirli & Pascucci (2023);Experiment 2;Orientation
3;119;130;11;1.73980350000784;3;-84;88;0;Ozkirli & Pascucci (2023);Experiment 2;Orientation
3;148;149;1;0.998372000001837;3;-29;89;0;Ozkirli & Pascucci (2023);Experiment 2;Orientation
3;155;160;5;1.18193459999748;3;-7;90;0;Ozkirli & Pascucci (2023);Experiment 2;Orientation
3;87;88;1;0.889735599979758;3;68;91;1;Ozkirli & Pascucci (2023);Experiment 2;Orientation
3;127;128;1;0.706256700039376;3;-40;92;1;Ozkirli & Pascucci (2023);Experiment 2;Orientation
3;99;93;-6;0.732067700009793;3;28;93;0;Ozkirli & Pascucci (2023);Experiment 2;Orientation
3;130;134;4;1.13172160001704;3;-31;94;0;Ozkirli & Pascucci (2023);Experiment 2;Orientation
3;155;172;17;1.25719969999045;3;-25;95;0;Ozkirli & Pascucci (2023);Experiment 2;Orientation
3;158;171;13;1.41527639998822;3;-3;96;0;Ozkirli & Pascucci (2023);Experiment 2;Orientation
3;9;0;-9;1.29864579997957;3;-31;97;1;Ozkirli & Pascucci (2023);Experiment 2;Orientation
3;72;68;-4;1.04022419999819;3;-63;98;1;Ozkirli & Pascucci (2023);Experiment 2;Orientation
3;20;35;15;1.4318105999846;3;52;99;0;Ozkirli & Pascucci (2023);Experiment 2;Orientation
3;168;173;5;0.915516500012018;3;32;100;1;Ozkirli & Pascucci (2023);Experiment 2;Orientation
3;179;178;-1;1.09826790000079;3;-11;101;1;Ozkirli & Pascucci (2023);Experiment 2;Orientation
3;39;33;-6;0.71557220001705;3;-40;102;1;Ozkirli & Pascucci (2023);Experiment 2;Orientation
3;58;43;-15;0.865216600010172;3;-19;103;1;Ozkirli & Pascucci (2023);Experiment 2;Orientation
3;171;167;-4;1.23990200000117;3;67;104;0;Ozkirli & Pascucci (2023);Experiment 2;Orientation
3;35;32;-3;0.832137799996417;3;-44;105;0;Ozkirli & Pascucci (2023);Experiment 2;Orientation
3;44;66;22;0.731455100001767;3;-9;106;1;Ozkirli & Pascucci (2023);Experiment 2;Orientation
3;115;126;11;0.715508799999952;3;-71;107;1;Ozkirli & Pascucci (2023);Experiment 2;Orientation
3;67;70;3;0.982116499973927;3;48;108;1;Ozkirli & Pascucci (2023);Experiment 2;Orientation
3;26;32;6;0.864937499980442;3;41;109;1;Ozkirli & Pascucci (2023);Experiment 2;Orientation
3;179;1;2;0.756580199988093;3;27;110;0;Ozkirli & Pascucci (2023);Experiment 2;Orientation
3;150;127;-23;0.739978500001598;3;29;111;1;Ozkirli & Pascucci (2023);Experiment 2;Orientation
3;56;41;-15;1.84817179996753;3;-86;112;0;Ozkirli & Pascucci (2023);Experiment 2;Orientation
3;156;129;-27;1.20713340002112;3;80;113;0;Ozkirli & Pascucci (2023);Experiment 2;Orientation
3;113;110;-3;2.13151640002616;3;43;114;1;Ozkirli & Pascucci (2023);Experiment 2;Orientation
3;150;150;0;4.04830710001988;3;-37;115;1;Ozkirli & Pascucci (2023);Experiment 2;Orientation
3;150;147;-3;1.19009220000589;3;0;116;1;Ozkirli & Pascucci (2023);Experiment 2;Orientation
3;149;125;-24;0.914977100037504;3;1;117;1;Ozkirli & Pascucci (2023);Experiment 2;Orientation
3;31;31;0;1.22349830000894;3;-62;118;0;Ozkirli & Pascucci (2023);Experiment 2;Orientation
3;83;87;4;0.748284899978898;3;-52;119;1;Ozkirli & Pascucci (2023);Experiment 2;Orientation
3;170;177;7;2.93979739997303;3;-87;120;1;Ozkirli & Pascucci (2023);Experiment 2;Orientation
3;7;0;-7;3.78166639996925;4;-17;121;0;Ozkirli & Pascucci (2023);Experiment 2;Orientation
3;129;140;11;1.19022879999829;4;58;122;1;Ozkirli & Pascucci (2023);Experiment 2;Orientation
3;44;45;1;2.31480039999587;4;85;123;1;Ozkirli & Pascucci (2023);Experiment 2;Orientation
3;30;31;1;1.68236690002959;4;14;124;0;Ozkirli & Pascucci (2023);Experiment 2;Orientation
3;176;178;2;1.04943630000344;4;34;125;0;Ozkirli & Pascucci (2023);Experiment 2;Orientation
3;37;37;0;0.723945999983698;4;-41;126;1;Ozkirli & Pascucci (2023);Experiment 2;Orientation
3;96;90;-6;0.681660499947611;4;-59;127;0;Ozkirli & Pascucci (2023);Experiment 2;Orientation
3;148;151;3;1.12322010000935;4;-52;128;0;Ozkirli & Pascucci (2023);Experiment 2;Orientation
3;3;177;-6;1.03994020004757;4;-35;129;0;Ozkirli & Pascucci (2023);Experiment 2;Orientation
3;130;117;-13;2.87302160001127;4;53;130;0;Ozkirli & Pascucci (2023);Experiment 2;Orientation
3;64;71;7;0.681548300024588;4;66;131;0;Ozkirli & Pascucci (2023);Experiment 2;Orientation
3;29;34;5;1.39846400002716;4;35;132;0;Ozkirli & Pascucci (2023);Experiment 2;Orientation
3;178;172;-6;0.923294999985956;4;31;133;1;Ozkirli & Pascucci (2023);Experiment 2;Orientation
3;146;141;-5;2.0900294999592;4;32;134;0;Ozkirli & Pascucci (2023);Experiment 2;Orientation
3;162;159;-3;0.79822639998747;4;-16;135;0;Ozkirli & Pascucci (2023);Experiment 2;Orientation
3;65;48;-17;0.956594199989922;4;-83;136;1;Ozkirli & Pascucci (2023);Experiment 2;Orientation
3;75;69;-6;1.73143159999745;4;-10;137;1;Ozkirli & Pascucci (2023);Experiment 2;Orientation
3;104;94;-10;0.664982399961445;4;-29;138;0;Ozkirli & Pascucci (2023);Experiment 2;Orientation
3;145;145;0;0.915076800039969;4;-41;139;0;Ozkirli & Pascucci (2023);Experiment 2;Orientation
3;106;114;8;1.9484660999733;4;39;140;0;Ozkirli & Pascucci (2023);Experiment 2;Orientation
3;35;53;18;1.62349120003637;4;71;141;0;Ozkirli & Pascucci (2023);Experiment 2;Orientation
3;116;113;-3;1.09037509997142;4;-81;142;0;Ozkirli & Pascucci (2023);Experiment 2;Orientation
3;50;54;4;1.8481115999748;4;66;143;0;Ozkirli & Pascucci (2023);Experiment 2;Orientation
3;115;116;1;1.06534919998376;4;-65;144;0;Ozkirli & Pascucci (2023);Experiment 2;Orientation
3;127;110;-17;1.03121639997698;4;-12;145;1;Ozkirli & Pascucci (2023);Experiment 2;Orientation
3;88;89;1;0.465285299986135;4;39;146;0;Ozkirli & Pascucci (2023);Experiment 2;Orientation
3;66;76;10;1.16516919998685;4;22;147;1;Ozkirli & Pascucci (2023);Experiment 2;Orientation
3;160;162;2;1.42290610005148;4;86;148;1;Ozkirli & Pascucci (2023);Experiment 2;Orientation
3;62;50;-12;2.69098199997097;4;-82;149;0;Ozkirli & Pascucci (2023);Experiment 2;Orientation
3;156;149;-7;2.23990490002325;4;86;150;0;Ozkirli & Pascucci (2023);Experiment 2;Orientation
3;26;34;8;1.68144030001713;4;-50;151;1;Ozkirli & Pascucci (2023);Experiment 2;Orientation
3;152;144;-8;2.15641729999334;4;54;152;0;Ozkirli & Pascucci (2023);Experiment 2;Orientation
3;132;136;4;1.70652040001005;4;20;153;0;Ozkirli & Pascucci (2023);Experiment 2;Orientation
3;173;2;9;0.915338699996937;4;-41;154;1;Ozkirli & Pascucci (2023);Experiment 2;Orientation
3;92;87;-5;2.7570203000214;4;81;155;1;Ozkirli & Pascucci (2023);Experiment 2;Orientation
3;65;79;14;1.85658210003749;4;27;156;1;Ozkirli & Pascucci (2023);Experiment 2;Orientation
3;12;174;-18;1.56478389998665;4;53;157;1;Ozkirli & Pascucci (2023);Experiment 2;Orientation
3;99;96;-3;1.60645940003451;4;-87;158;0;Ozkirli & Pascucci (2023);Experiment 2;Orientation
3;165;167;2;1.35689179995097;4;-66;159;0;Ozkirli & Pascucci (2023);Experiment 2;Orientation
3;38;31;-7;1.15679820004152;4;-53;160;1;Ozkirli & Pascucci (2023);Experiment 2;Orientation
3;71;67;-4;0.989390300004743;5;-33;161;1;Ozkirli & Pascucci (2023);Experiment 2;Orientation
3;161;155;-6;0.948522599996068;5;-90;162;1;Ozkirli & Pascucci (2023);Experiment 2;Orientation
3;40;36;-4;1.24020830000518;5;-59;163;0;Ozkirli & Pascucci (2023);Experiment 2;Orientation
3;112;147;35;0.681550799985416;5;-72;164;0;Ozkirli & Pascucci (2023);Experiment 2;Orientation
3;17;14;-3;1.13162180001382;5;-85;165;0;Ozkirli & Pascucci (2023);Experiment 2;Orientation
3;111;115;4;0.798557800007984;5;86;166;1;Ozkirli & Pascucci (2023);Experiment 2;Orientation
3;117;114;-3;0.506972200004384;5;-6;167;0;Ozkirli & Pascucci (2023);Experiment 2;Orientation
3;87;64;-23;1.35653869999805;5;30;168;1;Ozkirli & Pascucci (2023);Experiment 2;Orientation
3;91;86;-5;2.18151049996959;5;-4;169;0;Ozkirli & Pascucci (2023);Experiment 2;Orientation
3;122;114;-8;1.57324480003444;5;-31;170;1;Ozkirli & Pascucci (2023);Experiment 2;Orientation
3;74;68;-6;0.948930499958806;5;48;171;1;Ozkirli & Pascucci (2023);Experiment 2;Orientation
3;87;80;-7;1.37311450002016;5;-13;172;0;Ozkirli & Pascucci (2023);Experiment 2;Orientation
3;41;29;-12;1.39827790000709;5;46;173;0;Ozkirli & Pascucci (2023);Experiment 2;Orientation
3;160;158;-2;1.09827620000578;5;61;174;0;Ozkirli & Pascucci (2023);Experiment 2;Orientation
3;50;28;-22;1.7733027000213;5;-70;175;0;Ozkirli & Pascucci (2023);Experiment 2;Orientation
3;39;26;-13;1.22288170002867;5;11;176;0;Ozkirli & Pascucci (2023);Experiment 2;Orientation
3;49;34;-15;1.97303990001092;5;-10;177;0;Ozkirli & Pascucci (2023);Experiment 2;Orientation
3;60;48;-12;2.39007360005053;5;-11;178;0;Ozkirli & Pascucci (2023);Experiment 2;Orientation
3;173;163;-10;1.06564239994623;5;67;179;1;Ozkirli & Pascucci (2023);Experiment 2;Orientation
3;25;36;11;1.03981180000119;5;-32;180;0;Ozkirli & Pascucci (2023);Experiment 2;Orientation
3;115;124;9;1.32349960005376;5;-90;181;1;Ozkirli & Pascucci (2023);Experiment 2;Orientation
3;168;159;-9;0.957718599995133;5;-53;182;0;Ozkirli & Pascucci (2023);Experiment 2;Orientation
3;98;98;0;1.25659419997828;5;70;183;0;Ozkirli & Pascucci (2023);Experiment 2;Orientation
3;61;50;-11;0.990302299964242;5;37;184;1;Ozkirli & Pascucci (2023);Experiment 2;Orientation
3;123;126;3;0.86465440003667;5;-62;185;0;Ozkirli & Pascucci (2023);Experiment 2;Orientation
3;97;107;10;0.998283599969;5;26;186;1;Ozkirli & Pascucci (2023);Experiment 2;Orientation
3;67;59;-8;1.04826120001962;5;30;187;0;Ozkirli & Pascucci (2023);Experiment 2;Orientation
3;173;164;-9;0.998233299993444;5;74;188;0;Ozkirli & Pascucci (2023);Experiment 2;Orientation
3;156;153;-3;1.36509659996955;5;17;189;0;Ozkirli & Pascucci (2023);Experiment 2;Orientation
3;4;172;-12;1.63156490004621;5;-28;190;1;Ozkirli & Pascucci (2023);Experiment 2;Orientation
3;179;17;18;1.39021949999733;5;5;191;0;Ozkirli & Pascucci (2023);Experiment 2;Orientation
3;96;104;8;0.890216599975247;5;83;192;0;Ozkirli & Pascucci (2023);Experiment 2;Orientation
3;111;99;-12;1.40663809998659;5;-15;193;1;Ozkirli & Pascucci (2023);Experiment 2;Orientation
3;167;174;7;1.16510589997051;5;-56;194;1;Ozkirli & Pascucci (2023);Experiment 2;Orientation
3;176;176;0;0.923637700034305;5;-9;195;1;Ozkirli & Pascucci (2023);Experiment 2;Orientation
3;137;151;14;0.873249199998099;5;39;196;1;Ozkirli & Pascucci (2023);Experiment 2;Orientation
3;62;42;-20;0.849072200013325;5;75;197;0;Ozkirli & Pascucci (2023);Experiment 2;Orientation
3;83;115;32;0.91487610002514;5;-21;198;1;Ozkirli & Pascucci (2023);Experiment 2;Orientation
3;156;151;-5;0.990537400008179;5;-73;199;0;Ozkirli & Pascucci (2023);Experiment 2;Orientation
3;115;92;-23;0.739982199971564;5;41;200;1;Ozkirli & Pascucci (2023);Experiment 2;Orientation
3;152;159;7;0.589786399970762;6;-37;201;1;Ozkirli & Pascucci (2023);Experiment 2;Orientation
3;148;144;-4;1.22344910004176;6;4;202;1;Ozkirli & Pascucci (2023);Experiment 2;Orientation
3;67;54;-13;0.823451599979308;6;81;203;0;Ozkirli & Pascucci (2023);Experiment 2;Orientation
3;96;101;5;1.21500070003094;6;-29;204;1;Ozkirli & Pascucci (2023);Experiment 2;Orientation
3;19;9;-10;0.781591100036167;6;77;205;0;Ozkirli & Pascucci (2023);Experiment 2;Orientation
3;107;121;14;0.923247000027914;6;-88;206;1;Ozkirli & Pascucci (2023);Experiment 2;Orientation
3;83;88;5;0.998258800012991;6;24;207;1;Ozkirli & Pascucci (2023);Experiment 2;Orientation
3;90;119;29;0.548350199998822;6;-7;208;1;Ozkirli & Pascucci (2023);Experiment 2;Orientation
3;11;9;-2;1.33161490003113;6;79;209;0;Ozkirli & Pascucci (2023);Experiment 2;Orientation
3;2;5;3;0.815003499970771;6;9;210;1;Ozkirli & Pascucci (2023);Experiment 2;Orientation
3;144;150;6;1.13223340001423;6;38;211;0;Ozkirli & Pascucci (2023);Experiment 2;Orientation
3;80;85;5;0.723660699964967;6;64;212;1;Ozkirli & Pascucci (2023);Experiment 2;Orientation
3;20;30;10;0.831591000023764;6;60;213;0;Ozkirli & Pascucci (2023);Experiment 2;Orientation
3;117;122;5;0.506579399982002;6;83;214;0;Ozkirli & Pascucci (2023);Experiment 2;Orientation
3;164;155;-9;0.465287900005933;6;-47;215;0;Ozkirli & Pascucci (2023);Experiment 2;Orientation
3;26;22;-4;0.531580100010615;6;-42;216;1;Ozkirli & Pascucci (2023);Experiment 2;Orientation
3;85;74;-11;0.706512600008864;6;-59;217;1;Ozkirli & Pascucci (2023);Experiment 2;Orientation
3;58;63;5;0.873514599981718;6;27;218;1;Ozkirli & Pascucci (2023);Experiment 2;Orientation
3;108;119;11;0.781852799991611;6;-50;219;0;Ozkirli & Pascucci (2023);Experiment 2;Orientation
3;64;75;11;0.690304599993397;6;44;220;0;Ozkirli & Pascucci (2023);Experiment 2;Orientation
3;83;65;-18;1.35661630000686;6;-19;221;0;Ozkirli & Pascucci (2023);Experiment 2;Orientation
3;152;129;-23;1.09034450002946;6;-69;222;1;Ozkirli & Pascucci (2023);Experiment 2;Orientation
3;96;106;10;0.848145299998578;6;56;223;1;Ozkirli & Pascucci (2023);Experiment 2;Orientation
3;37;44;7;0.890205700008664;6;59;224;1;Ozkirli & Pascucci (2023);Experiment 2;Orientation
3;123;126;3;0.798226099985186;6;-86;225;1;Ozkirli & Pascucci (2023);Experiment 2;Orientation
3;142;124;-18;0.906194599985611;6;-19;226;0;Ozkirli & Pascucci (2023);Experiment 2;Orientation
3;156;135;-21;1.08151879999787;6;-14;227;1;Ozkirli & Pascucci (2023);Experiment 2;Orientation
3;106;95;-11;0.715531499998178;6;50;228;1;Ozkirli & Pascucci (2023);Experiment 2;Orientation
3;107;104;-3;0.815373199991882;6;-1;229;1;Ozkirli & Pascucci (2023);Experiment 2;Orientation
3;81;104;23;1.04817569995066;6;26;230;1;Ozkirli & Pascucci (2023);Experiment 2;Orientation
3;170;176;6;1.25664560002042;6;-89;231;0;Ozkirli & Pascucci (2023);Experiment 2;Orientation
3;77;71;-6;0.681754699966405;6;-87;232;1;Ozkirli & Pascucci (2023);Experiment 2;Orientation
3;81;90;9;0.898821799957659;6;-4;233;0;Ozkirli & Pascucci (2023);Experiment 2;Orientation
3;159;168;9;1.18171069998061;6;-78;234;0;Ozkirli & Pascucci (2023);Experiment 2;Orientation
3;128;143;15;0.898261399997864;6;31;235;1;Ozkirli & Pascucci (2023);Experiment 2;Orientation
3;28;32;4;0.906631799996831;6;-80;236;0;Ozkirli & Pascucci (2023);Experiment 2;Orientation
3;53;129;76;0.881670400034636;6;-25;237;1;Ozkirli & Pascucci (2023);Experiment 2;Orientation
3;4;3;-1;1.04850630002329;6;49;238;1;Ozkirli & Pascucci (2023);Experiment 2;Orientation
3;41;35;-6;1.15667749999557;6;-37;239;1;Ozkirli & Pascucci (2023);Experiment 2;Orientation
3;1;6;5;0.964990699954797;6;40;240;1;Ozkirli & Pascucci (2023);Experiment 2;Orientation
3;137;131;-6;1.21486260002712;7;44;241;0;Ozkirli & Pascucci (2023);Experiment 2;Orientation
3;127;138;11;0.856696700036991;7;10;242;1;Ozkirli & Pascucci (2023);Experiment 2;Orientation
3;5;7;2;1.21492749999743;7;-58;243;1;Ozkirli & Pascucci (2023);Experiment 2;Orientation
3;129;127;-2;1.89002599997912;7;56;244;0;Ozkirli & Pascucci (2023);Experiment 2;Orientation
3;154;157;3;1.39865489996737;7;-25;245;0;Ozkirli & Pascucci (2023);Experiment 2;Orientation
3;47;42;-5;2.58975859999191;7;-73;246;0;Ozkirli & Pascucci (2023);Experiment 2;Orientation
3;116;132;16;0.723337200004607;7;-69;247;1;Ozkirli & Pascucci (2023);Experiment 2;Orientation
3;9;14;5;0.923631399986334;7;-73;248;1;Ozkirli & Pascucci (2023);Experiment 2;Orientation
3;159;151;-8;0.582181699981447;7;30;249;1;Ozkirli & Pascucci (2023);Experiment 2;Orientation
3;18;7;-11;0.923303699993994;7;-39;250;1;Ozkirli & Pascucci (2023);Experiment 2;Orientation
3;90;89;-1;0.86502460000338;7;-72;251;0;Ozkirli & Pascucci (2023);Experiment 2;Orientation
3;138;141;3;1.6899191000266;7;-48;252;1;Ozkirli & Pascucci (2023);Experiment 2;Orientation
3;146;143;-3;1.72343640000327;7;-8;253;0;Ozkirli & Pascucci (2023);Experiment 2;Orientation
3;91;89;-2;1.8898288999917;7;55;254;0;Ozkirli & Pascucci (2023);Experiment 2;Orientation
3;53;65;12;1.56492630002322;7;38;255;1;Ozkirli & Pascucci (2023);Experiment 2;Orientation
3;44;57;13;1.13192630000412;7;9;256;1;Ozkirli & Pascucci (2023);Experiment 2;Orientation
3;113;131;18;1.82323619996896;7;-69;257;0;Ozkirli & Pascucci (2023);Experiment 2;Orientation
3;60;55;-5;1.59004620002815;7;53;258;0;Ozkirli & Pascucci (2023);Experiment 2;Orientation
3;172;159;-13;1.54822980001336;7;68;259;0;Ozkirli & Pascucci (2023);Experiment 2;Orientation
3;36;49;13;0.889953500009142;7;-44;260;1;Ozkirli & Pascucci (2023);Experiment 2;Orientation
3;152;143;-9;1.5565638000262;7;64;261;0;Ozkirli & Pascucci (2023);Experiment 2;Orientation
3;87;87;0;2.08989709999878;7;65;262;0;Ozkirli & Pascucci (2023);Experiment 2;Orientation
3;28;27;-1;0.573228599969298;7;59;263;0;Ozkirli & Pascucci (2023);Experiment 2;Orientation
3;167;168;1;1.25653410004452;7;41;264;1;Ozkirli & Pascucci (2023);Experiment 2;Orientation
3;163;163;0;1.42319559998577;7;4;265;0;Ozkirli & Pascucci (2023);Experiment 2;Orientation
3;180;2;2;1.30685779999476;7;-17;266;1;Ozkirli & Pascucci (2023);Experiment 2;Orientation
3;170;164;-6;0.981861500011291;7;10;267;1;Ozkirli & Pascucci (2023);Experiment 2;Orientation
3;70;70;0;0.98171059996821;7;-80;268;0;Ozkirli & Pascucci (2023);Experiment 2;Orientation
3;8;9;1;2.68139480001992;7;62;269;0;Ozkirli & Pascucci (2023);Experiment 2;Orientation
3;168;177;9;1.52318020001985;7;20;270;1;Ozkirli & Pascucci (2023);Experiment 2;Orientation
3;150;140;-10;1.64013760001399;7;18;271;0;Ozkirli & Pascucci (2023);Experiment 2;Orientation
3;170;167;-3;2.70671140000923;7;-20;272;0;Ozkirli & Pascucci (2023);Experiment 2;Orientation
3;68;49;-19;3.50669730000664;7;-78;273;1;Ozkirli & Pascucci (2023);Experiment 2;Orientation
3;118;132;14;2.6151036999654;7;-50;274;1;Ozkirli & Pascucci (2023);Experiment 2;Orientation
3;53;45;-8;1.38184749998618;7;65;275;1;Ozkirli & Pascucci (2023);Experiment 2;Orientation
3;117;130;13;0.622954899969045;7;-64;276;0;Ozkirli & Pascucci (2023);Experiment 2;Orientation
3;101;110;9;0.764999000006355;7;16;277;1;Ozkirli & Pascucci (2023);Experiment 2;Orientation
3;97;119;22;0.964985899976455;7;4;278;1;Ozkirli & Pascucci (2023);Experiment 2;Orientation
3;55;51;-4;1.31535500002792;7;42;279;1;Ozkirli & Pascucci (2023);Experiment 2;Orientation
3;48;42;-6;0.96491869998863;7;7;280;0;Ozkirli & Pascucci (2023);Experiment 2;Orientation
3;136;148;12;0.798408600036055;8;-88;281;1;Ozkirli & Pascucci (2023);Experiment 2;Orientation
3;126;132;6;0.681722900015302;8;10;282;0;Ozkirli & Pascucci (2023);Experiment 2;Orientation
3;165;171;6;0.940347099967767;8;-39;283;0;Ozkirli & Pascucci (2023);Experiment 2;Orientation
3;34;25;-9;1.24818639998557;8;-49;284;0;Ozkirli & Pascucci (2023);Experiment 2;Orientation
3;105;117;12;0.806644399999641;8;-71;285;0;Ozkirli & Pascucci (2023);Experiment 2;Orientation
3;68;59;-9;0.77293410000857;8;37;286;1;Ozkirli & Pascucci (2023);Experiment 2;Orientation
3;12;7;-5;1.02328780002426;8;56;287;1;Ozkirli & Pascucci (2023);Experiment 2;Orientation
3;63;54;-9;1.48153740004636;8;-51;288;1;Ozkirli & Pascucci (2023);Experiment 2;Orientation
3;117;130;13;0.856602200015914;8;-54;289;1;Ozkirli & Pascucci (2023);Experiment 2;Orientation
3;58;43;-15;0.59825549996458;8;59;290;0;Ozkirli & Pascucci (2023);Experiment 2;Orientation
3;59;96;37;0.4566622999846;8;-1;291;1;Ozkirli & Pascucci (2023);Experiment 2;Orientation
3;163;165;2;1.13146109995432;8;76;292;0;Ozkirli & Pascucci (2023);Experiment 2;Orientation
3;44;28;-16;0.939869399997406;8;-61;293;1;Ozkirli & Pascucci (2023);Experiment 2;Orientation
3;156;157;1;1.64025559998117;8;68;294;0;Ozkirli & Pascucci (2023);Experiment 2;Orientation
3;39;39;0;0.981584699999075;8;-63;295;1;Ozkirli & Pascucci (2023);Experiment 2;Orientation
3;120;109;-11;0.890305800014175;8;-81;296;1;Ozkirli & Pascucci (2023);Experiment 2;Orientation
3;51;51;0;0.706957200018223;8;69;297;0;Ozkirli & Pascucci (2023);Experiment 2;Orientation
3;91;96;5;1.06492569996044;8;-40;298;1;Ozkirli & Pascucci (2023);Experiment 2;Orientation
3;69;68;-1;0.51494989998173;8;22;299;1;Ozkirli & Pascucci (2023);Experiment 2;Orientation
3;173;170;-3;1.3482595999958;8;76;300;0;Ozkirli & Pascucci (2023);Experiment 2;Orientation
3;34;17;-17;1.15677000000142;8;-41;301;0;Ozkirli & Pascucci (2023);Experiment 2;Orientation
3;118;127;9;1.18997700000182;8;-84;302;1;Ozkirli & Pascucci (2023);Experiment 2;Orientation
3;53;53;0;1.77337980002631;8;65;303;1;Ozkirli & Pascucci (2023);Experiment 2;Orientation
3;128;125;-3;0.516109200019855;8;-75;304;0;Ozkirli & Pascucci (2023);Experiment 2;Orientation
3;79;85;6;0.964942299993709;8;49;305;1;Ozkirli & Pascucci (2023);Experiment 2;Orientation
3;61;58;-3;1.63168240000959;8;18;306;0;Ozkirli & Pascucci (2023);Experiment 2;Orientation
3;135;129;-6;0.83145949995378;8;-74;307;0;Ozkirli & Pascucci (2023);Experiment 2;Orientation
3;92;88;-4;1.60681009996915;8;43;308;0;Ozkirli & Pascucci (2023);Experiment 2;Orientation
3;157;157;0;0.740229199989699;8;-65;309;0;Ozkirli & Pascucci (2023);Experiment 2;Orientation
3;43;65;22;0.890198400011286;8;-66;310;1;Ozkirli & Pascucci (2023);Experiment 2;Orientation
3;11;30;19;0.748283299966715;8;32;311;1;Ozkirli & Pascucci (2023);Experiment 2;Orientation
3;106;120;14;0.864903200010303;8;85;312;0;Ozkirli & Pascucci (2023);Experiment 2;Orientation
3;28;35;7;1.38978220004356;8;78;313;1;Ozkirli & Pascucci (2023);Experiment 2;Orientation
3;52;50;-2;2.22321279998869;8;-24;314;0;Ozkirli & Pascucci (2023);Experiment 2;Orientation
3;129;137;8;1.64852400001837;8;-77;315;0;Ozkirli & Pascucci (2023);Experiment 2;Orientation
3;169;161;-8;1.42312530003255;8;-40;316;1;Ozkirli & Pascucci (2023);Experiment 2;Orientation
3;89;79;-10;0.932286099996418;8;80;317;1;Ozkirli & Pascucci (2023);Experiment 2;Orientation
3;64;93;29;0.723631099972408;8;25;318;1;Ozkirli & Pascucci (2023);Experiment 2;Orientation
3;114;122;8;0.648632499971427;8;-50;319;1;Ozkirli & Pascucci (2023);Experiment 2;Orientation
3;109;100;-9;0.698206100030802;8;5;320;1;Ozkirli & Pascucci (2023);Experiment 2;Orientation
3;163;174;11;0.957004499970935;9;-54;321;1;Ozkirli & Pascucci (2023);Experiment 2;Orientation
3;56;26;-30;0.573619799979497;9;-73;322;1;Ozkirli & Pascucci (2023);Experiment 2;Orientation
3;70;59;-11;0.740564899984747;9;-14;323;0;Ozkirli & Pascucci (2023);Experiment 2;Orientation
3;177;169;-8;0.65659389999928;9;73;324;1;Ozkirli & Pascucci (2023);Experiment 2;Orientation
3;177;175;-2;0.465407099982258;9;0;325;0;Ozkirli & Pascucci (2023);Experiment 2;Orientation
3;60;57;-3;0.923646500043105;9;-63;326;1;Ozkirli & Pascucci (2023);Experiment 2;Orientation
3;64;74;10;0.765045400010422;9;-4;327;1;Ozkirli & Pascucci (2023);Experiment 2;Orientation
3;99;105;6;0.92327580001438;9;-35;328;1;Ozkirli & Pascucci (2023);Experiment 2;Orientation
3;167;175;8;0.681732499971986;9;-68;329;1;Ozkirli & Pascucci (2023);Experiment 2;Orientation
3;35;22;-13;0.773667300003581;9;-48;330;0;Ozkirli & Pascucci (2023);Experiment 2;Orientation
3;116;124;8;0.41497129999334;9;-81;331;1;Ozkirli & Pascucci (2023);Experiment 2;Orientation
3;48;41;-7;0.573596299975179;9;68;332;0;Ozkirli & Pascucci (2023);Experiment 2;Orientation
3;60;35;-25;1.43158539995784;9;-12;333;1;Ozkirli & Pascucci (2023);Experiment 2;Orientation
3;172;157;-15;1.14825339999516;9;68;334;1;Ozkirli & Pascucci (2023);Experiment 2;Orientation
3;92;92;0;0.932091200025752;9;80;335;0;Ozkirli & Pascucci (2023);Experiment 2;Orientation
3;27;18;-9;0.765097399998922;9;65;336;0;Ozkirli & Pascucci (2023);Experiment 2;Orientation
3;67;75;8;0.672900100005791;9;-40;337;0;Ozkirli & Pascucci (2023);Experiment 2;Orientation
3;49;48;-1;1.32348229998024;9;18;338;0;Ozkirli & Pascucci (2023);Experiment 2;Orientation
3;178;168;-10;1.04860139999073;9;51;339;0;Ozkirli & Pascucci (2023);Experiment 2;Orientation
3;92;106;14;0.656657700019423;9;86;340;1;Ozkirli & Pascucci (2023);Experiment 2;Orientation
3;177;163;-14;0.864938799990341;9;-85;341;1;Ozkirli & Pascucci (2023);Experiment 2;Orientation
3;89;96;7;0.730343199975323;9;88;342;0;Ozkirli & Pascucci (2023);Experiment 2;Orientation
3;102;96;-6;0.848567599954549;9;-13;343;1;Ozkirli & Pascucci (2023);Experiment 2;Orientation
3;122;119;-3;1.12324220000301;9;-20;344;0;Ozkirli & Pascucci (2023);Experiment 2;Orientation
3;14;15;1;0.7900511000189;9;-72;345;0;Ozkirli & Pascucci (2023);Experiment 2;Orientation
3;57;61;4;0.565005399985239;9;-43;346;0;Ozkirli & Pascucci (2023);Experiment 2;Orientation
3;102;110;8;1.03183629998239;9;-45;347;0;Ozkirli & Pascucci (2023);Experiment 2;Orientation
3;46;50;4;0.623614199983422;9;56;348;1;Ozkirli & Pascucci (2023);Experiment 2;Orientation
3;14;1;-13;0.998214900027961;9;32;349;1;Ozkirli & Pascucci (2023);Experiment 2;Orientation
3;117;123;6;0.731632900016848;9;77;350;1;Ozkirli & Pascucci (2023);Experiment 2;Orientation
3;44;40;-4;0.681661000009626;9;73;351;1;Ozkirli & Pascucci (2023);Experiment 2;Orientation
3;43;38;-5;1.09887940000044;9;1;352;1;Ozkirli & Pascucci (2023);Experiment 2;Orientation
3;1;173;-8;0.956557800003793;9;42;353;1;Ozkirli & Pascucci (2023);Experiment 2;Orientation
3;92;83;-9;1.27369990001898;9;89;354;0;Ozkirli & Pascucci (2023);Experiment 2;Orientation
3;134;138;4;0.823249200009741;9;-42;355;0;Ozkirli & Pascucci (2023);Experiment 2;Orientation
3;42;30;-12;0.773365000030026;9;-88;356;1;Ozkirli & Pascucci (2023);Experiment 2;Orientation
3;24;28;4;1.42295720003312;9;18;357;0;Ozkirli & Pascucci (2023);Experiment 2;Orientation
3;104;119;15;0.998810600023717;9;-80;358;0;Ozkirli & Pascucci (2023);Experiment 2;Orientation
3;95;102;7;1.06483459996525;9;9;359;0;Ozkirli & Pascucci (2023);Experiment 2;Orientation
3;19;17;-2;0.956538899976294;9;76;360;0;Ozkirli & Pascucci (2023);Experiment 2;Orientation
3;56;57;1;1.77320950001013;10;-37;361;1;Ozkirli & Pascucci (2023);Experiment 2;Orientation
3;172;168;-4;0.773453400004655;10;64;362;0;Ozkirli & Pascucci (2023);Experiment 2;Orientation
3;14;15;1;1.4649562999839;10;-22;363;0;Ozkirli & Pascucci (2023);Experiment 2;Orientation
3;36;46;10;1.24951250001322;10;-22;364;1;Ozkirli & Pascucci (2023);Experiment 2;Orientation
3;106;117;11;0.731570800009649;10;-70;365;0;Ozkirli & Pascucci (2023);Experiment 2;Orientation
3;161;139;-22;1.07350469997618;10;-55;366;1;Ozkirli & Pascucci (2023);Experiment 2;Orientation
3;83;102;19;1.3482582999859;10;78;367;1;Ozkirli & Pascucci (2023);Experiment 2;Orientation
3;133;117;-16;1.1399562000297;10;-50;368;1;Ozkirli & Pascucci (2023);Experiment 2;Orientation
3;18;13;-5;0.723493200028315;10;-65;369;1;Ozkirli & Pascucci (2023);Experiment 2;Orientation
3;7;4;-3;0.756989600020461;10;11;370;1;Ozkirli & Pascucci (2023);Experiment 2;Orientation
3;121;118;-3;0.931795899989083;10;66;371;1;Ozkirli & Pascucci (2023);Experiment 2;Orientation
3;92;86;-6;1.15636989998166;10;29;372;0;Ozkirli & Pascucci (2023);Experiment 2;Orientation
3;82;55;-27;0.615254100004677;10;10;373;1;Ozkirli & Pascucci (2023);Experiment 2;Orientation
3;141;144;3;1.63150570000289;10;-59;374;0;Ozkirli & Pascucci (2023);Experiment 2;Orientation
3;127;127;0;1.56523399997968;10;14;375;1;Ozkirli & Pascucci (2023);Experiment 2;Orientation
3;155;140;-15;1.27336739999009;10;-28;376;1;Ozkirli & Pascucci (2023);Experiment 2;Orientation
3;8;21;13;2.43146559997695;10;-33;377;1;Ozkirli & Pascucci (2023);Experiment 2;Orientation
3;95;94;-1;1.93983139999909;10;-87;378;0;Ozkirli & Pascucci (2023);Experiment 2;Orientation
3;104;122;18;1.53171140002087;10;-9;379;0;Ozkirli & Pascucci (2023);Experiment 2;Orientation
3;134;123;-11;3.09798359998967;10;-30;380;0;Ozkirli & Pascucci (2023);Experiment 2;Orientation
3;150;148;-2;0.806763599975966;10;-16;381;0;Ozkirli & Pascucci (2023);Experiment 2;Orientation
3;32;42;10;1.54816539998865;10;-62;382;0;Ozkirli & Pascucci (2023);Experiment 2;Orientation
3;28;23;-5;1.58994689997053;10;4;383;1;Ozkirli & Pascucci (2023);Experiment 2;Orientation
3;3;4;1;2.21520859998418;10;25;384;0;Ozkirli & Pascucci (2023);Experiment 2;Orientation
3;144;135;-9;1.27329169999575;10;39;385;0;Ozkirli & Pascucci (2023);Experiment 2;Orientation
3;6;4;-2;2.21489639999345;10;-42;386;0;Ozkirli & Pascucci (2023);Experiment 2;Orientation
3;132;126;-6;0.931628599995747;10;54;387;1;Ozkirli & Pascucci (2023);Experiment 2;Orientation
3;144;65;-79;0.981635099975392;10;-12;388;1;Ozkirli & Pascucci (2023);Experiment 2;Orientation
3;157;141;-16;2.31476450001355;10;-13;389;0;Ozkirli & Pascucci (2023);Experiment 2;Orientation
3;118;133;15;1.03985490003834;10;39;390;1;Ozkirli & Pascucci (2023);Experiment 2;Orientation
3;67;50;-17;1.52349950000644;10;51;391;0;Ozkirli & Pascucci (2023);Experiment 2;Orientation
3;72;101;29;0.898286499956157;10;-5;392;1;Ozkirli & Pascucci (2023);Experiment 2;Orientation
3;179;164;-15;1.2067838999792;10;73;393;1;Ozkirli & Pascucci (2023);Experiment 2;Orientation
3;179;167;-12;0.981874999997672;10;0;394;0;Ozkirli & Pascucci (2023);Experiment 2;Orientation
3;141;155;14;1.08992600004422;10;38;395;0;Ozkirli & Pascucci (2023);Experiment 2;Orientation
3;85;72;-13;1.23956840002211;10;56;396;0;Ozkirli & Pascucci (2023);Experiment 2;Orientation
3;161;165;4;1.47374629997648;10;-76;397;1;Ozkirli & Pascucci (2023);Experiment 2;Orientation
3;98;106;8;1.42323070002021;10;63;398;0;Ozkirli & Pascucci (2023);Experiment 2;Orientation
3;102;116;14;1.18173009995371;10;-4;399;0;Ozkirli & Pascucci (2023);Experiment 2;Orientation
3;170;172;2;0.790526499971747;10;-68;400;0;Ozkirli & Pascucci (2023);Experiment 2;Orientation
4;41;52;11;0.78163919999497;1;NaN;1;1;Ozkirli & Pascucci (2023);Experiment 2;Orientation
4;96;107;11;0.873886700021103;1;-55;2;0;Ozkirli & Pascucci (2023);Experiment 2;Orientation
4;121;120;-1;1.39833250001539;1;-25;3;0;Ozkirli & Pascucci (2023);Experiment 2;Orientation
4;105;55;-50;1.3980947000091;1;16;4;1;Ozkirli & Pascucci (2023);Experiment 2;Orientation
4;127;114;-13;1.23157739994349;1;-22;5;0;Ozkirli & Pascucci (2023);Experiment 2;Orientation
4;92;123;31;1.40660780004691;1;35;6;1;Ozkirli & Pascucci (2023);Experiment 2;Orientation
4;63;56;-7;1.25663370004622;1;29;7;1;Ozkirli & Pascucci (2023);Experiment 2;Orientation
4;113;117;4;1.34824249998201;1;-50;8;0;Ozkirli & Pascucci (2023);Experiment 2;Orientation
4;59;58;-1;1.08992619998753;1;54;9;0;Ozkirli & Pascucci (2023);Experiment 2;Orientation
4;105;117;12;1.13165000005392;1;-46;10;1;Ozkirli & Pascucci (2023);Experiment 2;Orientation
4;56;51;-5;0.740018200012855;1;49;11;1;Ozkirli & Pascucci (2023);Experiment 2;Orientation
4;87;51;-36;1.38160440005595;1;-31;12;1;Ozkirli & Pascucci (2023);Experiment 2;Orientation
4;69;65;-4;0.940008600009605;1;18;13;0;Ozkirli & Pascucci (2023);Experiment 2;Orientation
4;31;41;10;1.17357980000088;1;38;14;1;Ozkirli & Pascucci (2023);Experiment 2;Orientation
4;19;24;5;1.35652999999002;1;12;15;0;Ozkirli & Pascucci (2023);Experiment 2;Orientation
4;150;139;-11;1.03159049997339;1;49;16;1;Ozkirli & Pascucci (2023);Experiment 2;Orientation
4;136;128;-8;0.864858600019943;1;14;17;1;Ozkirli & Pascucci (2023);Experiment 2;Orientation
4;96;123;27;0.756739799981005;1;40;18;1;Ozkirli & Pascucci (2023);Experiment 2;Orientation
4;85;108;23;0.931651600054465;1;11;19;1;Ozkirli & Pascucci (2023);Experiment 2;Orientation
4;102;125;23;0.981945899955463;1;-17;20;1;Ozkirli & Pascucci (2023);Experiment 2;Orientation
4;19;27;8;0.989989400026388;1;83;21;0;Ozkirli & Pascucci (2023);Experiment 2;Orientation
4;89;106;17;0.898310999968089;1;-70;22;0;Ozkirli & Pascucci (2023);Experiment 2;Orientation
4;22;27;5;1.23999779997393;1;67;23;0;Ozkirli & Pascucci (2023);Experiment 2;Orientation
4;7;13;6;0.873900600010529;1;15;24;0;Ozkirli & Pascucci (2023);Experiment 2;Orientation
4;98;121;23;1.72350299998652;1;89;25;1;Ozkirli & Pascucci (2023);Experiment 2;Orientation
4;40;38;-2;0.981671900022775;1;58;26;0;Ozkirli & Pascucci (2023);Experiment 2;Orientation
4;70;45;-25;1.27322969998932;1;-30;27;1;Ozkirli & Pascucci (2023);Experiment 2;Orientation
4;103;123;20;1.29826389998198;1;-33;28;1;Ozkirli & Pascucci (2023);Experiment 2;Orientation
4;104;126;22;1.11498999997275;1;-1;29;0;Ozkirli & Pascucci (2023);Experiment 2;Orientation
4;134;129;-5;1.09045419999165;1;-30;30;0;Ozkirli & Pascucci (2023);Experiment 2;Orientation
4;176;21;25;0.839999300020281;1;-42;31;1;Ozkirli & Pascucci (2023);Experiment 2;Orientation
4;93;114;21;0.998334700008854;1;83;32;1;Ozkirli & Pascucci (2023);Experiment 2;Orientation
4;127;120;-7;1.34825779998209;1;-34;33;1;Ozkirli & Pascucci (2023);Experiment 2;Orientation
4;114;111;-3;1.03252349997638;1;13;34;0;Ozkirli & Pascucci (2023);Experiment 2;Orientation
4;118;138;20;1.10695430001942;1;-4;35;0;Ozkirli & Pascucci (2023);Experiment 2;Orientation
4;156;149;-7;1.22367470001336;1;-38;36;1;Ozkirli & Pascucci (2023);Experiment 2;Orientation
4;79;51;-28;1.01497190003283;1;77;37;1;Ozkirli & Pascucci (2023);Experiment 2;Orientation
4;178;166;-12;1.41489949997049;1;81;38;0;Ozkirli & Pascucci (2023);Experiment 2;Orientation
4;62;41;-21;1.2986006999854;1;-64;39;1;Ozkirli & Pascucci (2023);Experiment 2;Orientation
4;45;48;3;1.62364379997598;1;17;40;0;Ozkirli & Pascucci (2023);Experiment 2;Orientation
4;177;167;-10;0.964896799996495;2;48;41;0;Ozkirli & Pascucci (2023);Experiment 2;Orientation
4;8;26;18;1.38991810003063;2;-11;42;0;Ozkirli & Pascucci (2023);Experiment 2;Orientation
4;71;40;-31;0.773369300004561;2;-63;43;1;Ozkirli & Pascucci (2023);Experiment 2;Orientation
4;149;145;-4;1.00684659997933;2;-78;44;1;Ozkirli & Pascucci (2023);Experiment 2;Orientation
4;131;155;24;0.998633400013205;2;18;45;0;Ozkirli & Pascucci (2023);Experiment 2;Orientation
4;169;172;3;0.665006400027778;2;-38;46;0;Ozkirli & Pascucci (2023);Experiment 2;Orientation
4;31;42;11;0.998216000036336;2;-42;47;0;Ozkirli & Pascucci (2023);Experiment 2;Orientation
4;21;23;2;0.723371199972462;2;10;48;0;Ozkirli & Pascucci (2023);Experiment 2;Orientation
4;35;42;7;1.45663430000423;2;-14;49;1;Ozkirli & Pascucci (2023);Experiment 2;Orientation
4;116;114;-2;1.20753249997506;2;-81;50;1;Ozkirli & Pascucci (2023);Experiment 2;Orientation
4;113;118;5;1.28157970000757;2;3;51;0;Ozkirli & Pascucci (2023);Experiment 2;Orientation
4;102;118;16;1.31532429996878;2;11;52;1;Ozkirli & Pascucci (2023);Experiment 2;Orientation
4;156;143;-13;1.13989159994526;2;-54;53;1;Ozkirli & Pascucci (2023);Experiment 2;Orientation
4;178;26;28;1.4402526000049;2;-22;54;1;Ozkirli & Pascucci (2023);Experiment 2;Orientation
4;81;61;-20;0.989885299990419;2;-83;55;0;Ozkirli & Pascucci (2023);Experiment 2;Orientation
4;22;31;9;0.940499100019224;2;59;56;1;Ozkirli & Pascucci (2023);Experiment 2;Orientation
4;87;58;-29;1.09829860000173;2;-65;57;1;Ozkirli & Pascucci (2023);Experiment 2;Orientation
4;148;133;-15;0.966505100019276;2;-61;58;0;Ozkirli & Pascucci (2023);Experiment 2;Orientation
4;33;56;23;0.848322200006805;2;-65;59;1;Ozkirli & Pascucci (2023);Experiment 2;Orientation
4;41;43;2;1.21490330004599;2;-8;60;0;Ozkirli & Pascucci (2023);Experiment 2;Orientation
4;18;24;6;0.931641700037289;2;23;61;0;Ozkirli & Pascucci (2023);Experiment 2;Orientation
4;67;45;-22;1.24829259997932;2;-49;62;0;Ozkirli & Pascucci (2023);Experiment 2;Orientation
4;179;177;-2;1.43154560000403;2;68;63;0;Ozkirli & Pascucci (2023);Experiment 2;Orientation
4;87;76;-11;1.25664380000671;2;-88;64;0;Ozkirli & Pascucci (2023);Experiment 2;Orientation
4;132;114;-18;1.14021480001975;2;-45;65;0;Ozkirli & Pascucci (2023);Experiment 2;Orientation
4;54;51;-3;1.08207120001316;2;78;66;0;Ozkirli & Pascucci (2023);Experiment 2;Orientation
4;60;67;7;0.906600599992089;2;-6;67;1;Ozkirli & Pascucci (2023);Experiment 2;Orientation
4;155;148;-7;0.773849599994719;2;85;68;0;Ozkirli & Pascucci (2023);Experiment 2;Orientation
4;73;63;-10;1.55655540002044;2;82;69;0;Ozkirli & Pascucci (2023);Experiment 2;Orientation
4;14;24;10;0.990017500007525;2;59;70;0;Ozkirli & Pascucci (2023);Experiment 2;Orientation
4;30;21;-9;1.05689569999231;2;-16;71;0;Ozkirli & Pascucci (2023);Experiment 2;Orientation
4;116;122;6;0.923245000012685;2;-86;72;0;Ozkirli & Pascucci (2023);Experiment 2;Orientation
4;173;26;33;1.06499410001561;2;-57;73;1;Ozkirli & Pascucci (2023);Experiment 2;Orientation
4;140;121;-19;0.95666710002115;2;33;74;1;Ozkirli & Pascucci (2023);Experiment 2;Orientation
4;131;146;15;0.69838160002837;2;9;75;1;Ozkirli & Pascucci (2023);Experiment 2;Orientation
4;44;48;4;1.37294410000322;2;87;76;0;Ozkirli & Pascucci (2023);Experiment 2;Orientation
4;172;159;-13;1.2232909000013;2;52;77;0;Ozkirli & Pascucci (2023);Experiment 2;Orientation
4;174;169;-5;0.781656500010286;2;-2;78;0;Ozkirli & Pascucci (2023);Experiment 2;Orientation
4;70;50;-20;1.10683660005452;2;-76;79;0;Ozkirli & Pascucci (2023);Experiment 2;Orientation
4;180;25;25;1.39846420002868;2;70;80;0;Ozkirli & Pascucci (2023);Experiment 2;Orientation
4;120;133;13;1.08152770000743;3;60;81;1;Ozkirli & Pascucci (2023);Experiment 2;Orientation
4;110;119;9;1.04857460001949;3;10;82;1;Ozkirli & Pascucci (2023);Experiment 2;Orientation
4;173;174;1;0.973565499996766;3;-63;83;0;Ozkirli & Pascucci (2023);Experiment 2;Orientation
4;46;40;-6;0.873630399990361;3;-53;84;0;Ozkirli & Pascucci (2023);Experiment 2;Orientation
4;34;47;13;0.789993399986997;3;12;85;1;Ozkirli & Pascucci (2023);Experiment 2;Orientation
4;140;133;-7;1.1066263000248;3;74;86;1;Ozkirli & Pascucci (2023);Experiment 2;Orientation
4;95;127;32;1.14048100000946;3;45;87;1;Ozkirli & Pascucci (2023);Experiment 2;Orientation
4;166;163;-3;1.04026770003838;3;-71;88;0;Ozkirli & Pascucci (2023);Experiment 2;Orientation
4;69;40;-29;1.10647639998933;3;-83;89;1;Ozkirli & Pascucci (2023);Experiment 2;Orientation
4;141;126;-15;0.756658600002993;3;-72;90;1;Ozkirli & Pascucci (2023);Experiment 2;Orientation
4;76;57;-19;1.14837900002021;3;65;91;0;Ozkirli & Pascucci (2023);Experiment 2;Orientation
4;117;114;-3;1.10657750000246;3;-41;92;1;Ozkirli & Pascucci (2023);Experiment 2;Orientation
4;7;19;12;1.13991640001768;3;-70;93;0;Ozkirli & Pascucci (2023);Experiment 2;Orientation
4;39;29;-10;1.3565320999478;3;-32;94;1;Ozkirli & Pascucci (2023);Experiment 2;Orientation
4;115;141;26;0.981997499999125;3;-76;95;0;Ozkirli & Pascucci (2023);Experiment 2;Orientation
4;64;38;-26;1.21495080000022;3;51;96;1;Ozkirli & Pascucci (2023);Experiment 2;Orientation
4;71;50;-21;1.03192589996615;3;-7;97;0;Ozkirli & Pascucci (2023);Experiment 2;Orientation
4;32;38;6;1.1565614999854;3;39;98;0;Ozkirli & Pascucci (2023);Experiment 2;Orientation
4;97;122;25;1.66516929998761;3;-65;99;1;Ozkirli & Pascucci (2023);Experiment 2;Orientation
4;10;36;26;1.13991319999332;3;87;100;1;Ozkirli & Pascucci (2023);Experiment 2;Orientation
4;35;38;3;0.865226600028109;3;-25;101;1;Ozkirli & Pascucci (2023);Experiment 2;Orientation
4;112;115;3;0.923290100006852;3;-77;102;1;Ozkirli & Pascucci (2023);Experiment 2;Orientation
4;3;31;28;1.70657670003129;3;-71;103;1;Ozkirli & Pascucci (2023);Experiment 2;Orientation
4;106;121;15;1.00656770000933;3;77;104;0;Ozkirli & Pascucci (2023);Experiment 2;Orientation
4;123;136;13;1.13979390001623;3;-17;105;1;Ozkirli & Pascucci (2023);Experiment 2;Orientation
4;33;37;4;0.881682000006549;3;90;106;1;Ozkirli & Pascucci (2023);Experiment 2;Orientation
4;11;32;21;0.789925099990796;3;22;107;0;Ozkirli & Pascucci (2023);Experiment 2;Orientation
4;121;130;9;0.756932899996173;3;70;108;0;Ozkirli & Pascucci (2023);Experiment 2;Orientation
4;174;163;-11;0.981896199984476;3;-53;109;0;Ozkirli & Pascucci (2023);Experiment 2;Orientation
4;129;121;-8;1.19849959999556;3;45;110;0;Ozkirli & Pascucci (2023);Experiment 2;Orientation
4;105;121;16;1.04003410000587;3;24;111;0;Ozkirli & Pascucci (2023);Experiment 2;Orientation
4;37;47;10;0.8979348000139;3;68;112;0;Ozkirli & Pascucci (2023);Experiment 2;Orientation
4;63;84;21;0.682451199973002;3;-26;113;1;Ozkirli & Pascucci (2023);Experiment 2;Orientation
4;78;53;-25;1.00685269996757;3;-15;114;1;Ozkirli & Pascucci (2023);Experiment 2;Orientation
4;79;64;-15;0.839987999992445;3;-1;115;1;Ozkirli & Pascucci (2023);Experiment 2;Orientation
4;100;122;22;1.21503689995734;3;-21;116;1;Ozkirli & Pascucci (2023);Experiment 2;Orientation
4;96;68;-28;1.0149121999857;3;4;117;1;Ozkirli & Pascucci (2023);Experiment 2;Orientation
4;129;112;-17;1.61485539999558;3;-33;118;1;Ozkirli & Pascucci (2023);Experiment 2;Orientation
4;35;43;8;0.923467300017364;3;-86;119;0;Ozkirli & Pascucci (2023);Experiment 2;Orientation
4;55;41;-14;1.0067424000008;3;-20;120;1;Ozkirli & Pascucci (2023);Experiment 2;Orientation
4;85;108;23;0.698602000018582;4;-30;121;1;Ozkirli & Pascucci (2023);Experiment 2;Orientation
4;29;42;13;0.881552699953318;4;56;122;1;Ozkirli & Pascucci (2023);Experiment 2;Orientation
4;153;139;-14;0.806969100027345;4;56;123;0;Ozkirli & Pascucci (2023);Experiment 2;Orientation
4;22;58;36;1.24828239995986;4;-49;124;1;Ozkirli & Pascucci (2023);Experiment 2;Orientation
4;93;99;6;0.765057199983858;4;-71;125;1;Ozkirli & Pascucci (2023);Experiment 2;Orientation
4;13;31;18;1.28178390004905;4;80;126;1;Ozkirli & Pascucci (2023);Experiment 2;Orientation
4;28;26;-2;0.665124299994204;4;-15;127;0;Ozkirli & Pascucci (2023);Experiment 2;Orientation
4;139;126;-13;0.931601700023748;4;69;128;0;Ozkirli & Pascucci (2023);Experiment 2;Orientation
4;10;36;26;1.15654709999217;4;-51;129;1;Ozkirli & Pascucci (2023);Experiment 2;Orientation
4;130;131;1;0.964938600023743;4;60;130;0;Ozkirli & Pascucci (2023);Experiment 2;Orientation
4;129;117;-12;1.14835630002199;4;1;131;0;Ozkirli & Pascucci (2023);Experiment 2;Orientation
4;142;132;-10;0.84027560002869;4;-13;132;0;Ozkirli & Pascucci (2023);Experiment 2;Orientation
4;71;51;-20;1.21483430004446;4;71;133;1;Ozkirli & Pascucci (2023);Experiment 2;Orientation
4;23;21;-2;1.56489410001086;4;48;134;1;Ozkirli & Pascucci (2023);Experiment 2;Orientation
4;105;108;3;0.956622000026982;4;-82;135;1;Ozkirli & Pascucci (2023);Experiment 2;Orientation
4;18;33;15;0.965296300011687;4;87;136;0;Ozkirli & Pascucci (2023);Experiment 2;Orientation
4;70;63;-7;1.43157549999887;4;-52;137;0;Ozkirli & Pascucci (2023);Experiment 2;Orientation
4;98;129;31;1.22351829998661;4;-28;138;1;Ozkirli & Pascucci (2023);Experiment 2;Orientation
4;34;50;16;0.781816800008528;4;64;139;0;Ozkirli & Pascucci (2023);Experiment 2;Orientation
4;139;145;6;1.00713629997335;4;75;140;1;Ozkirli & Pascucci (2023);Experiment 2;Orientation
4;60;44;-16;0.96501599997282;4;79;141;1;Ozkirli & Pascucci (2023);Experiment 2;Orientation
4;149;155;6;1.52316859998973;4;-89;142;1;Ozkirli & Pascucci (2023);Experiment 2;Orientation
4;23;38;15;0.956627300009131;4;-54;143;0;Ozkirli & Pascucci (2023);Experiment 2;Orientation
4;146;146;0;0.823860699951183;4;57;144;1;Ozkirli & Pascucci (2023);Experiment 2;Orientation
4;107;125;18;1.05685980000999;4;39;145;1;Ozkirli & Pascucci (2023);Experiment 2;Orientation
4;70;62;-8;1.13987070001895;4;37;146;0;Ozkirli & Pascucci (2023);Experiment 2;Orientation
4;118;120;2;1.148262600007;4;-48;147;0;Ozkirli & Pascucci (2023);Experiment 2;Orientation
4;147;141;-6;1.21520020003663;4;-29;148;1;Ozkirli & Pascucci (2023);Experiment 2;Orientation
4;63;67;4;1.19849449995672;4;84;149;1;Ozkirli & Pascucci (2023);Experiment 2;Orientation
4;93;74;-19;1.45655970001826;4;-30;150;0;Ozkirli & Pascucci (2023);Experiment 2;Orientation
4;138;120;-18;1.70655200001784;4;-45;151;1;Ozkirli & Pascucci (2023);Experiment 2;Orientation
4;65;66;1;1.13156279997202;4;73;152;0;Ozkirli & Pascucci (2023);Experiment 2;Orientation
4;171;164;-7;1.40658950002398;4;74;153;0;Ozkirli & Pascucci (2023);Experiment 2;Orientation
4;95;101;6;1.60651099996176;4;76;154;0;Ozkirli & Pascucci (2023);Experiment 2;Orientation
4;157;174;17;0.781352899968624;4;-62;155;0;Ozkirli & Pascucci (2023);Experiment 2;Orientation
4;84;78;-6;0.807268399978057;4;73;156;1;Ozkirli & Pascucci (2023);Experiment 2;Orientation
4;147;123;-24;1.51494179997826;4;-63;157;0;Ozkirli & Pascucci (2023);Experiment 2;Orientation
4;66;73;7;1.30659290001495;4;81;158;0;Ozkirli & Pascucci (2023);Experiment 2;Orientation
4;139;144;5;1.22326190001331;4;-73;159;1;Ozkirli & Pascucci (2023);Experiment 2;Orientation
4;156;145;-11;1.03994309995323;4;-17;160;0;Ozkirli & Pascucci (2023);Experiment 2;Orientation
4;152;145;-7;0.781641500012483;5;4;161;1;Ozkirli & Pascucci (2023);Experiment 2;Orientation
4;107;158;51;0.998574299970642;5;45;162;1;Ozkirli & Pascucci (2023);Experiment 2;Orientation
4;2;179;-3;0.723321500001475;5;-75;163;0;Ozkirli & Pascucci (2023);Experiment 2;Orientation
4;65;44;-21;0.790310700016562;5;-63;164;0;Ozkirli & Pascucci (2023);Experiment 2;Orientation
4;46;35;-11;0.873884600005113;5;19;165;1;Ozkirli & Pascucci (2023);Experiment 2;Orientation
4;5;9;4;0.681637200003024;5;41;166;1;Ozkirli & Pascucci (2023);Experiment 2;Orientation
4;37;46;9;0.864903299952857;5;-32;167;1;Ozkirli & Pascucci (2023);Experiment 2;Orientation
4;35;51;16;1.25610569998389;5;2;168;0;Ozkirli & Pascucci (2023);Experiment 2;Orientation
4;152;153;1;0.665784500015434;5;63;169;1;Ozkirli & Pascucci (2023);Experiment 2;Orientation
4;158;161;3;1.03986810002243;5;-6;170;0;Ozkirli & Pascucci (2023);Experiment 2;Orientation
4;163;151;-12;0.94792609999422;5;-5;171;1;Ozkirli & Pascucci (2023);Experiment 2;Orientation
4;119;122;3;1.1325428999844;5;44;172;0;Ozkirli & Pascucci (2023);Experiment 2;Orientation
4;141;169;28;0.891044399992097;5;-22;173;1;Ozkirli & Pascucci (2023);Experiment 2;Orientation
4;71;63;-8;1.37428210000508;5;70;174;1;Ozkirli & Pascucci (2023);Experiment 2;Orientation
4;19;145;-54;0.865978700050618;5;52;175;1;Ozkirli & Pascucci (2023);Experiment 2;Orientation
4;93;76;-17;1.00770999997621;5;-74;176;0;Ozkirli & Pascucci (2023);Experiment 2;Orientation
4;171;170;-1;1.18266620003851;5;-78;177;1;Ozkirli & Pascucci (2023);Experiment 2;Orientation
4;30;55;25;0.94941810000455;5;-39;178;1;Ozkirli & Pascucci (2023);Experiment 2;Orientation
4;155;143;-12;1.07276719994843;5;55;179;0;Ozkirli & Pascucci (2023);Experiment 2;Orientation
4;35;41;6;0.841006900009234;5;-60;180;1;Ozkirli & Pascucci (2023);Experiment 2;Orientation
4;103;144;41;1.23264330002712;5;-68;181;0;Ozkirli & Pascucci (2023);Experiment 2;Orientation
4;51;56;5;1.0160681999987;5;52;182;1;Ozkirli & Pascucci (2023);Experiment 2;Orientation
4;166;163;-3;0.898281599977054;5;65;183;0;Ozkirli & Pascucci (2023);Experiment 2;Orientation
4;85;84;-1;1.0390497999615;5;81;184;1;Ozkirli & Pascucci (2023);Experiment 2;Orientation
4;40;55;15;1.32340189995011;5;45;185;0;Ozkirli & Pascucci (2023);Experiment 2;Orientation
4;65;52;-13;0.956910200009588;5;-25;186;0;Ozkirli & Pascucci (2023);Experiment 2;Orientation
4;164;172;8;1.06627680000383;5;81;187;0;Ozkirli & Pascucci (2023);Experiment 2;Orientation
4;63;65;2;1.16487410000991;5;-79;188;0;Ozkirli & Pascucci (2023);Experiment 2;Orientation
4;107;64;-43;1.0734122999711;5;-44;189;1;Ozkirli & Pascucci (2023);Experiment 2;Orientation
4;110;114;4;1.06498500000453;5;-3;190;1;Ozkirli & Pascucci (2023);Experiment 2;Orientation
4;166;21;35;1.21489100001054;5;-56;191;0;Ozkirli & Pascucci (2023);Experiment 2;Orientation
4;34;40;6;1.32356889999937;5;-48;192;1;Ozkirli & Pascucci (2023);Experiment 2;Orientation
4;3;21;18;0.681623000011314;5;31;193;0;Ozkirli & Pascucci (2023);Experiment 2;Orientation
4;167;159;-8;1.00655599997845;5;16;194;0;Ozkirli & Pascucci (2023);Experiment 2;Orientation
4;178;165;-13;1.04060509998817;5;-11;195;1;Ozkirli & Pascucci (2023);Experiment 2;Orientation
4;136;133;-3;0.965233900002204;5;42;196;0;Ozkirli & Pascucci (2023);Experiment 2;Orientation
4;138;125;-13;1.06506079999963;5;-2;197;0;Ozkirli & Pascucci (2023);Experiment 2;Orientation
4;70;53;-17;1.22322310000891;5;68;198;0;Ozkirli & Pascucci (2023);Experiment 2;Orientation
4;85;59;-26;1.32322459999705;5;-15;199;0;Ozkirli & Pascucci (2023);Experiment 2;Orientation
4;105;120;15;1.07331899995916;5;-20;200;1;Ozkirli & Pascucci (2023);Experiment 2;Orientation
4;83;73;-10;0.973340999975335;6;22;201;1;Ozkirli & Pascucci (2023);Experiment 2;Orientation
4;105;100;-5;1.239940200001;6;-22;202;0;Ozkirli & Pascucci (2023);Experiment 2;Orientation
4;35;53;18;1.46523899998283;6;70;203;1;Ozkirli & Pascucci (2023);Experiment 2;Orientation
4;161;138;-23;0.806611099978909;6;54;204;1;Ozkirli & Pascucci (2023);Experiment 2;Orientation
4;64;57;-7;1.33991489995969;6;-83;205;0;Ozkirli & Pascucci (2023);Experiment 2;Orientation
4;12;46;34;0.881693099974655;6;52;206;0;Ozkirli & Pascucci (2023);Experiment 2;Orientation
4;113;121;8;0.782243199995719;6;79;207;0;Ozkirli & Pascucci (2023);Experiment 2;Orientation
4;158;144;-14;1.03194169997005;6;-45;208;0;Ozkirli & Pascucci (2023);Experiment 2;Orientation
4;16;40;24;1.20661499997368;6;-38;209;0;Ozkirli & Pascucci (2023);Experiment 2;Orientation
4;155;162;7;0.664975300023798;6;41;210;1;Ozkirli & Pascucci (2023);Experiment 2;Orientation
4;126;115;-11;0.623205500014592;6;29;211;0;Ozkirli & Pascucci (2023);Experiment 2;Orientation
4;70;63;-7;0.848621000011917;6;56;212;1;Ozkirli & Pascucci (2023);Experiment 2;Orientation
4;163;168;5;0.839989400003105;6;87;213;0;Ozkirli & Pascucci (2023);Experiment 2;Orientation
4;52;51;-1;0.907011200033594;6;-69;214;0;Ozkirli & Pascucci (2023);Experiment 2;Orientation
4;54;46;-8;1.198211800016;6;-2;215;1;Ozkirli & Pascucci (2023);Experiment 2;Orientation
4;127;123;-4;1.08199839998269;6;-73;216;0;Ozkirli & Pascucci (2023);Experiment 2;Orientation
4;150;169;19;0.856642200029455;6;-23;217;1;Ozkirli & Pascucci (2023);Experiment 2;Orientation
4;2;1;-1;1.00659030000679;6;-32;218;1;Ozkirli & Pascucci (2023);Experiment 2;Orientation
4;2;48;46;0.89039660000708;6;0;219;1;Ozkirli & Pascucci (2023);Experiment 2;Orientation
4;154;152;-2;0.889928699994925;6;28;220;1;Ozkirli & Pascucci (2023);Experiment 2;Orientation
4;31;30;-1;1.13156360003632;6;-57;221;1;Ozkirli & Pascucci (2023);Experiment 2;Orientation
4;174;25;31;0.781643800029997;6;37;222;1;Ozkirli & Pascucci (2023);Experiment 2;Orientation
4;118;143;25;1.1815762000042;6;56;223;0;Ozkirli & Pascucci (2023);Experiment 2;Orientation
4;57;48;-9;0.890011899988167;6;61;224;0;Ozkirli & Pascucci (2023);Experiment 2;Orientation
4;40;45;5;0.948714300000574;6;17;225;1;Ozkirli & Pascucci (2023);Experiment 2;Orientation
4;140;134;-6;1.09836210001959;6;80;226;0;Ozkirli & Pascucci (2023);Experiment 2;Orientation
4;162;173;11;0.639966799993999;6;-22;227;1;Ozkirli & Pascucci (2023);Experiment 2;Orientation
4;23;40;17;1.0149161000154;6;-41;228;0;Ozkirli & Pascucci (2023);Experiment 2;Orientation
4;47;45;-2;0.873287499998696;6;-24;229;0;Ozkirli & Pascucci (2023);Experiment 2;Orientation
4;114;127;13;1.16489770001499;6;-67;230;0;Ozkirli & Pascucci (2023);Experiment 2;Orientation
4;26;45;19;1.1899041000288;6;88;231;0;Ozkirli & Pascucci (2023);Experiment 2;Orientation
4;31;29;-2;0.806940799986478;6;-5;232;0;Ozkirli & Pascucci (2023);Experiment 2;Orientation
4;103;119;16;0.92327839997597;6;-72;233;1;Ozkirli & Pascucci (2023);Experiment 2;Orientation
4;7;25;18;0.914953799976502;6;-84;234;0;Ozkirli & Pascucci (2023);Experiment 2;Orientation
4;164;157;-7;0.823306300037075;6;23;235;1;Ozkirli & Pascucci (2023);Experiment 2;Orientation
4;46;41;-5;1.26527029997669;6;-62;236;0;Ozkirli & Pascucci (2023);Experiment 2;Orientation
4;61;66;5;0.956652599968947;6;-15;237;1;Ozkirli & Pascucci (2023);Experiment 2;Orientation
4;128;133;5;0.939961500000209;6;-67;238;1;Ozkirli & Pascucci (2023);Experiment 2;Orientation
4;110;124;14;0.856751499988604;6;18;239;0;Ozkirli & Pascucci (2023);Experiment 2;Orientation
4;76;50;-26;1.31528430001345;6;34;240;1;Ozkirli & Pascucci (2023);Experiment 2;Orientation
4;90;97;7;0.831305100000463;7;-14;241;0;Ozkirli & Pascucci (2023);Experiment 2;Orientation
4;135;139;4;1.00693169998704;7;-45;242;0;Ozkirli & Pascucci (2023);Experiment 2;Orientation
4;78;56;-22;1.27313109999523;7;57;243;0;Ozkirli & Pascucci (2023);Experiment 2;Orientation
4;153;168;15;0.698343000025488;7;-75;244;1;Ozkirli & Pascucci (2023);Experiment 2;Orientation
4;159;151;-8;1.23202360002324;7;-6;245;0;Ozkirli & Pascucci (2023);Experiment 2;Orientation
4;19;37;18;0.756644500012044;7;-40;246;1;Ozkirli & Pascucci (2023);Experiment 2;Orientation
4;132;145;13;0.964981500001159;7;67;247;1;Ozkirli & Pascucci (2023);Experiment 2;Orientation
4;36;45;9;1.08233160001691;7;-84;248;1;Ozkirli & Pascucci (2023);Experiment 2;Orientation
4;133;147;14;1.04881180002121;7;83;249;1;Ozkirli & Pascucci (2023);Experiment 2;Orientation
4;6;30;24;0.940246099955402;7;-53;250;1;Ozkirli & Pascucci (2023);Experiment 2;Orientation
4;148;162;14;0.616110399947502;7;38;251;1;Ozkirli & Pascucci (2023);Experiment 2;Orientation
4;79;55;-24;0.839964600047097;7;69;252;1;Ozkirli & Pascucci (2023);Experiment 2;Orientation
4;178;36;38;1.08164240000769;7;81;253;0;Ozkirli & Pascucci (2023);Experiment 2;Orientation
4;102;116;14;0.956961699994281;7;76;254;1;Ozkirli & Pascucci (2023);Experiment 2;Orientation
4;167;171;4;0.95658870000625;7;-65;255;0;Ozkirli & Pascucci (2023);Experiment 2;Orientation
4;25;34;9;0.890043499995954;7;-38;256;0;Ozkirli & Pascucci (2023);Experiment 2;Orientation
4;14;27;13;1.33181789994705;7;11;257;0;Ozkirli & Pascucci (2023);Experiment 2;Orientation
4;169;161;-8;1.11495909997029;7;25;258;0;Ozkirli & Pascucci (2023);Experiment 2;Orientation
4;95;100;5;1.22326919995248;7;74;259;1;Ozkirli & Pascucci (2023);Experiment 2;Orientation
4;115;112;-3;0.731655399955343;7;-20;260;1;Ozkirli & Pascucci (2023);Experiment 2;Orientation
4;124;118;-6;0.789977700042073;7;-9;261;0;Ozkirli & Pascucci (2023);Experiment 2;Orientation
4;122;121;-1;1.24850829999195;7;2;262;0;Ozkirli & Pascucci (2023);Experiment 2;Orientation
4;143;169;26;0.773572199977934;7;-21;263;1;Ozkirli & Pascucci (2023);Experiment 2;Orientation
4;43;56;13;0.690010500024073;7;-80;264;1;Ozkirli & Pascucci (2023);Experiment 2;Orientation
4;138;121;-17;0.939958900038619;7;85;265;0;Ozkirli & Pascucci (2023);Experiment 2;Orientation
4;54;53;-1;1.03161139995791;7;84;266;1;Ozkirli & Pascucci (2023);Experiment 2;Orientation
4;60;50;-10;0.731654000002891;7;-6;267;1;Ozkirli & Pascucci (2023);Experiment 2;Orientation
4;127;128;1;1.20662210002774;7;-67;268;1;Ozkirli & Pascucci (2023);Experiment 2;Orientation
4;153;151;-2;1.28180810000049;7;-26;269;0;Ozkirli & Pascucci (2023);Experiment 2;Orientation
4;137;152;15;0.873758900037501;7;16;270;1;Ozkirli & Pascucci (2023);Experiment 2;Orientation
4;97;72;-25;1.24001680000219;7;40;271;1;Ozkirli & Pascucci (2023);Experiment 2;Orientation
4;109;109;0;1.35692730004666;7;-12;272;1;Ozkirli & Pascucci (2023);Experiment 2;Orientation
4;37;41;4;1.19688310002675;7;72;273;0;Ozkirli & Pascucci (2023);Experiment 2;Orientation
4;97;116;19;0.931461000000127;7;-60;274;1;Ozkirli & Pascucci (2023);Experiment 2;Orientation
4;134;140;6;1.28162130003329;7;-37;275;1;Ozkirli & Pascucci (2023);Experiment 2;Orientation
4;176;8;12;0.640391100023407;7;-42;276;1;Ozkirli & Pascucci (2023);Experiment 2;Orientation
4;71;41;-30;1.04828379995888;7;-75;277;1;Ozkirli & Pascucci (2023);Experiment 2;Orientation
4;77;65;-12;0.931865599995945;7;-6;278;0;Ozkirli & Pascucci (2023);Experiment 2;Orientation
4;39;34;-5;0.831938199989963;7;38;279;0;Ozkirli & Pascucci (2023);Experiment 2;Orientation
4;24;41;17;0.773569100012537;7;15;280;0;Ozkirli & Pascucci (2023);Experiment 2;Orientation
4;31;20;-11;0.790015700040385;8;-7;281;1;Ozkirli & Pascucci (2023);Experiment 2;Orientation
4;40;49;9;0.707332400023006;8;-9;282;0;Ozkirli & Pascucci (2023);Experiment 2;Orientation
4;53;54;1;0.681692200014368;8;-13;283;0;Ozkirli & Pascucci (2023);Experiment 2;Orientation
4;38;37;-1;0.931551699992269;8;15;284;0;Ozkirli & Pascucci (2023);Experiment 2;Orientation
