nStim;nBlock;nTrial;inducer;target;resp;rt;bar_start;t1;t2;ISI1;ISI2;block;delta_targ;delta_ind;obs;error;errorc;error_out_after;error_removed;block_start_index;rtc;outsubj
2;1;1;64;123;117;1.37392230005935;114;0.249982731649652;0.24997819471173;2.00810574181378;2.00810673134401;1;NaN;-59;1;-6;-4.01818181818182;NaN;0;0;1.37392230005935;0
2;1;2;144;172;162;1.39906909991987;87;0.249978986568749;0.24997462099418;2.00811026827432;2.00810780795291;1;-49;-28;1;-10;-8.01818181818182;0;0;0;1.39906909991987;0
2;1;3;99;8;15;2.90863210009411;102;0.249976747203618;0.249968784162775;2.0081152447965;2.00811101845466;1;-16;-89;1;7;8.98181818181818;0;0;0;2.90863210009411;0
1;1;4;NaN;76;66;0.949903900036588;81;0.249981710454449;0;2.00810528406873;0;1;-68;NaN;1;-10;-8.01818181818182;0;0;0;0.949903900036588;0
1;1;5;NaN;47;36;0.941034799907357;167;0.24997939215973;0;2.00811022613198;0;1;29;NaN;1;-11;-9.01818181818182;0;0;0;0.941034799907357;0
2;1;6;114;121;120;1.43267300003208;96;0.249975952552631;0.249860999640077;2.00811258959584;2.00811440288089;1;-74;-7;1;-1;0.981818181818182;0;0;0;1.43267300003208;0
2;1;7;100;175;171;1.92538499995135;32;0.249978755135089;0.249975126469508;2.00810923147947;2.00810887361877;1;-54;-75;1;-4;-2.01818181818182;0;0;0;1.92538499995135;0
1;1;8;NaN;69;50;2.23175419983454;155;0.249980965862051;0;2.00811337120831;0;1;-74;NaN;1;-19;-17.0181818181818;0;0;0;2.23175419983454;0
1;1;9;NaN;180;166;1.28312279982492;56;0.249984294641763;0;2.00810252083465;0;1;69;NaN;1;-14;-12.0181818181818;0;0;0;1.28312279982492;0
2;1;10;2;59;63;1.18370179994963;8;0.249984236899763;0.249973658006638;2.0081069234293;2.00811100262217;1;-59;-57;1;4;5.98181818181818;0;0;0;1.18370179994963;0
1;1;11;NaN;155;157;1.19157349993475;177;0.249972723657265;0;2.00811295513995;0;1;84;NaN;1;2;3.98181818181818;0;0;0;1.19157349993475;0
1;1;12;NaN;21;31;1.2914943001233;112;0.249979660613462;0;2.00810882891528;0;1;-46;NaN;1;10;11.9818181818182;0;0;0;1.2914943001233;0
1;1;13;NaN;39;41;0.958267099922523;32;0.249973363243043;0;2.00811808137223;0;1;-18;NaN;1;2;3.98181818181818;0;0;0;0.958267099922523;0
2;1;14;99;137;126;1.25852949987166;47;0.249971273122355;0.24997067078948;2.00812321878038;2.00811447110027;1;82;-38;1;-11;-9.01818181818182;0;0;0;1.25852949987166;0
1;1;15;NaN;103;113;0.973872400121763;92;0.249976418213919;0;2.00811022613198;0;1;34;NaN;1;10;11.9818181818182;0;0;0;0.973872400121763;0
2;1;16;90;51;46;1.30854260013439;3;0.249974852660671;0.249973200028762;2.00811381847598;2.00811033928767;1;52;39;1;-5;-3.01818181818182;0;0;0;1.30854260013439;0
1;1;17;NaN;34;38;1.69119430007413;117;0.249975052895024;0;2.00811358401552;0;1;17;NaN;1;4;5.98181818181818;0;0;0;1.69119430007413;0
2;1;18;27;71;80;1.94054590002634;27;0.249981152825058;0.249970042146742;2.00810335529968;2.00810514180921;1;-37;-44;1;9;10.9818181818182;0;0;0;1.94054590002634;0
2;1;19;151;52;41;1.35859739989974;33;0.249977163039148;0.249967897310853;2.0081135740038;2.00811409996822;1;19;-81;1;-11;-9.01818181818182;0;0;0;1.35859739989974;0
2;1;20;91;40;38;2.17506110016257;166;0.249970349948853;0.249973371159285;2.0081202420406;2.00811232347041;1;12;51;1;-2;-0.0181818181818181;0;0;0;2.17506110016257;0
1;1;21;NaN;150;140;1.43216699990444;88;0.249981836648658;0;2.0081026579719;0;1;70;NaN;1;-10;-8.01818181818182;0;0;0;1.43216699990444;0
2;1;22;63;80;77;0.675369600066915;77;0.249981276458129;0.249965442111716;2.00811244454235;2.00811503920704;1;70;-17;1;-3;-1.01818181818182;0;0;0;0.675369600066915;0
1;1;23;NaN;77;71;1.16529939998873;28;0.249979186337441;0;2.00810427381657;0;1;3;NaN;1;-6;-4.01818181818182;0;0;0;1.16529939998873;0
1;1;24;NaN;93;73;1.25698609999381;121;0.249987594783306;0;2.00810196832754;0;1;-16;NaN;1;-20;-18.0181818181818;0;0;0;1.25698609999381;0
2;1;25;47;79;76;1.39217019989155;26;0.249980568420142;0.249968271236867;2.00811116304249;2.00811406038702;1;14;-32;1;-3;-1.01818181818182;0;0;0;1.39217019989155;0
1;1;26;NaN;54;48;0.783286199904978;48;0.249986462993547;0;2.00810105795972;0;1;25;NaN;1;-6;-4.01818181818182;0;0;0;0.783286199904978;0
2;1;27;162;63;61;1.71515560010448;109;0.249979405198246;0.249967268435284;2.00811414467171;2.00811097351834;1;-9;-81;1;-2;-0.0181818181818181;0;0;0;1.71515560010448;0
1;1;28;NaN;60;49;0.841613299911842;49;0.249964515911415;0;2.00811102613807;0;1;3;NaN;1;-11;-9.01818181818182;0;0;0;0.841613299911842;0
2;1;29;54;17;29;1.96522949985228;112;0.249980723485351;0.249971652636304;2.0081144105643;2.00811067083851;1;43;37;1;12;13.9818181818182;0;0;0;1.96522949985228;0
1;1;30;NaN;95;103;1.81533170002513;52;0.249983415473253;0;2.00811070553027;0;1;-78;NaN;1;8;9.98181818181818;0;0;0;1.81533170002513;0
2;2;31;120;178;176;1.15030759992078;92;0.249978376086801;0.249972357880324;2.0081112422049;2.00811136839911;2;-83;-58;1;-2;NaN;0;0;1;1.15030759992078;0
1;2;32;NaN;55;23;2.29039860004559;98;0.249963915906847;0;2.00811848137528;0;2;-57;NaN;1;-32;NaN;0;1;0;NaN;0
1;2;33;NaN;58;47;2.62396700005047;179;0.249982421053573;0;1.9997651737649;0;2;-3;NaN;1;-11;-9.01818181818182;0;0;0;2.62396700005047;0
2;2;34;61;157;162;0.97541239997372;165;0.249977247323841;0.249979184241965;2.00810925499536;2.00810417369939;2;81;84;1;5;6.98181818181818;0;0;0;0.97541239997372;0
2;2;35;79;151;154;1.51703540002927;47;0.249983247369528;0.249966268194839;2.00810920237564;2.00811136350967;2;6;-72;1;3;4.98181818181818;0;0;0;1.51703540002927;0
1;2;36;NaN;39;22;0.86543140001595;22;0.249978631502017;0;2.00810642889701;0;2;-68;NaN;1;-17;-15.0181818181818;0;0;0;0.86543140001595;0
2;2;37;109;50;24;2.00018219999038;174;0.249979063170031;0.249978905543685;2.00811390229501;2.00810652342625;2;-11;59;1;-26;-24.0181818181818;0;0;0;2.00018219999038;0
2;2;38;81;97;119;1.79067430016585;176;0.249984805239365;0.249971415614709;2.00811085500754;2.00810657371767;2;-47;-16;1;22;23.9818181818182;0;0;0;1.79067430016585;0
1;2;39;NaN;131;126;1.55809940001927;159;0.249978705076501;0;2.00811272906139;0;2;-34;NaN;1;-5;-3.01818181818182;0;0;0;1.55809940001927;0
1;2;40;NaN;49;33;1.55810649995692;78;0.249981591943651;0;2.00810972903855;0;2;82;NaN;1;-16;-14.0181818181818;0;0;0;1.55810649995692;0
1;2;41;NaN;74;69;1.69034869992174;35;0.249971105251461;0;2.00812220014632;0;2;-25;NaN;1;-5;-3.01818181818182;0;0;0;1.69034869992174;0
1;2;42;NaN;87;75;1.84854899998754;43;0.249978568404913;0;2.00811568414792;0;2;-13;NaN;1;-12;-10.0181818181818;0;0;0;1.84854899998754;0
1;2;43;NaN;180;159;1.46555149997585;146;0.249977634288371;0;2.00810659723356;0;2;87;NaN;1;-21;-19.0181818181818;0;0;0;1.46555149997585;0
2;2;44;162;70;66;1.69881639978848;9;0.249978289240971;0.249974755570292;2.00811323174275;2.00810401560739;2;-70;-88;1;-4;-2.01818181818182;0;0;0;1.69881639978848;0
1;2;45;NaN;134;153;1.3406073001679;3;0.249980902532116;0;2.00811096071266;0;2;-64;NaN;1;19;20.9818181818182;0;0;0;1.3406073001679;0
2;2;46;138;53;48;1.21703249984421;121;0.249978863168508;0.249976400053129;2.00810431852005;2.0081066316925;2;81;85;1;-5;-3.01818181818182;0;0;0;1.21703249984421;0
1;2;47;NaN;40;34;0.94164859992452;178;0.249978863168508;0;2.00811101566069;0;2;13;NaN;1;-6;-4.01818181818182;0;0;0;0.94164859992452;0
2;2;48;157;162;157;1.7252368000336;120;0.249984757741913;0.249969142023474;2.00810398161411;2.00811278424226;2;58;-5;1;-5;-3.01818181818182;0;0;0;1.7252368000336;0
2;2;49;17;82;70;1.47410780005157;16;0.249967573443428;0.249980165855959;2.00811656587757;2.00810693949461;2;80;-65;1;-12;-10.0181818181818;0;0;0;1.47410780005157;0
2;2;50;114;153;164;1.96694519999437;40;0.24997483426705;0.24997733393684;2.00811272650026;2.00810813694261;2;-71;-39;1;11;12.9818181818182;0;0;0;1.96694519999437;0
2;2;51;94;11;21;1.77519519999623;65;0.249975689221174;0.2499755974859;2.00810962612741;2.00810690014623;2;-38;83;1;10;11.9818181818182;0;0;0;1.77519519999623;0
2;2;52;67;27;11;2.37419639993459;98;0.249979336978868;0.249964823713526;2.00810948153958;2.00811228924431;2;-16;40;1;-16;-14.0181818181818;0;0;0;2.37419639993459;0
2;2;53;169;45;28;1.35026099998504;153;0.249974005157128;0.24997735535726;2.00811417354271;2.00810438673943;2;-18;-56;1;-17;-15.0181818181818;0;0;0;1.35026099998504;0
2;2;54;112;51;27;1.2169683999382;24;0.249972378835082;0.249991702381521;1.99977018986829;2.00810941052623;2;-6;61;1;-24;-22.0181818181818;0;0;0;1.2169683999382;0
1;2;55;NaN;135;162;1.50709829991683;66;0.249968802556396;0;2.00810660258867;0;2;-84;NaN;1;27;NaN;0;1;0;NaN;0
1;2;56;NaN;63;41;2.08316669985652;146;0.249972778838128;0;2.00810745521449;0;2;72;NaN;1;-22;-20.0181818181818;0;0;0;2.08316669985652;0
1;2;57;NaN;154;168;1.98190649994649;79;0.249984304886311;0;2.00811685505323;0;2;89;NaN;1;14;15.9818181818182;0;0;0;1.98190649994649;0
1;2;58;NaN;153;155;1.47489009983838;126;0.249976805411279;0;2.0081117155496;0;2;1;NaN;1;2;3.98181818181818;0;0;0;1.47489009983838;0
1;2;59;NaN;104;95;1.57482440001331;138;0.249984505353495;0;2.0081079157535;0;2;49;NaN;1;-9;-7.01818181818182;0;0;0;1.57482440001331;0
2;2;60;162;155;166;1.8669302999042;40;0.249978094827384;0.249981668544933;2.00811494723894;2.0081030104775;2;-51;7;1;11;12.9818181818182;0;0;0;1.8669302999042;0
2;3;61;123;17;9;0.841889099916443;9;0.249981105094776;0.249972565798089;2.00810641306452;2.00811206316575;3;-42;-74;1;-8;NaN;0;0;1;0.841889099916443;0
2;3;62;25;26;32;1.62424469995312;157;0.249975544633344;0.249964942224324;2.00810908409767;2.0081107551232;3;-9;-1;1;6;7.98181818181818;0;0;0;1.62424469995312;0
1;3;63;NaN;118;126;1.24158830009401;139;0.249982657842338;0;2.00811107642949;0;3;88;NaN;1;8;9.98181818181818;0;0;0;1.24158830009401;0
1;3;64;NaN;177;177;1.40822869981639;119;0.249979763058946;0;2.00810834462754;0;3;-59;NaN;1;0;1.98181818181818;0;0;0;1.40822869981639;0
1;3;65;NaN;77;67;1.53311519999988;47;0.24997888924554;0;2.00811199750751;0;3;-80;NaN;1;-10;-8.01818181818182;0;0;0;1.53311519999988;0
1;3;66;NaN;98;96;2.32475670007989;27;0.24997539492324;0;2.00811472325586;0;3;-21;NaN;1;-2;-0.0181818181818181;0;0;0;2.32475670007989;0
2;3;67;117;73;66;0.900584799936041;89;0.24998559220694;0.249977428931743;2.00810854206793;2.00810718443245;3;25;44;1;-7;-5.01818181818182;0;0;0;0.900584799936041;0
2;3;68;13;28;20;1.33371019992046;12;0.249984657857567;0.249975628918037;2.00810997094959;2.00811498425901;3;45;-15;1;-8;-6.01818181818182;0;0;0;1.33371019992046;0
2;3;69;136;71;45;0.891901899827644;77;0.24997606035322;0.249975244514644;2.00810760515742;2.00810559769161;3;-43;65;1;-26;-24.0181818181818;0;0;0;0.891901899827644;0
1;3;70;NaN;8;16;1.61646499997005;115;0.249981923494488;0;2.00811513955705;0;3;63;NaN;1;8;9.98181818181818;0;0;0;1.61646499997005;0
1;3;71;NaN;176;179;0.975016199983656;41;0.249979631742463;0;2.00811008946039;0;3;12;NaN;1;3;4.98181818181818;0;0;0;0.975016199983656;0
2;3;72;118;145;140;1.15879389992915;167;0.249978094594553;0.249976560706273;2.00810630782507;2.00810671551153;3;31;-27;1;-5;-3.01818181818182;0;0;0;1.15879389992915;0
1;3;73;NaN;78;72;0.583298800047487;56;0.249984236666933;0;2.00810477393679;0;3;67;NaN;1;-6;-4.01818181818182;0;0;0;0.583298800047487;0
2;3;74;122;172;162;1.70854049990885;89;0.249972142046317;0.24996811314486;2.00812139455229;2.00811383943073;3;86;-50;1;-10;-8.01818181818182;0;0;0;1.70854049990885;0
1;3;75;NaN;84;62;1.9239006000571;30;0.249958754749969;0;2.00811585807241;0;3;88;NaN;1;-22;-20.0181818181818;0;0;0;1.9239006000571;0
2;3;76;69;158;157;2.03262439998798;8;0.249981576111168;0.249973600031808;2.00810631597415;2.00811187108047;3;-74;-89;1;-1;0.981818181818182;0;0;0;2.03262439998798;0
2;3;77;100;17;22;2.12532140011899;52;0.249977078754455;0.249967784387991;2.00811317376792;2.00810799188912;3;-39;83;1;5;6.98181818181818;0;0;0;2.12532140011899;0
2;3;78;45;91;96;2.2917613000609;17;0.249975723680109;0.249975871061906;2.00811074464582;2.0081057974603;3;-74;-46;1;5;6.98181818181818;0;0;0;2.2917613000609;0
1;3;79;NaN;174;9;1.14907839987427;122;0.249977194936946;0;2.00811279984191;0;3;-83;NaN;1;15;16.9818181818182;0;0;0;1.14907839987427;0
1;3;80;NaN;105;96;1.99854119983502;29;0.249989279080182;0;2.00810689758509;0;3;69;NaN;1;-9;-7.01818181818182;0;0;0;1.99854119983502;0
1;3;81;NaN;175;159;1.49981660000049;130;0.249983994755894;0;2.00812852615491;0;3;-70;NaN;1;-16;-14.0181818181818;0;0;0;1.49981660000049;0
1;3;82;NaN;174;174;1.1081831001211;115;0.249971634242684;0;2.00811530533247;0;3;1;NaN;1;0;1.98181818181818;0;0;0;1.1081831001211;0
1;3;83;NaN;87;97;1.55001460015774;52;0.249983486719429;0;2.00811097375117;0;3;87;NaN;1;10;11.9818181818182;0;0;0;1.55001460015774;0
1;3;84;NaN;159;84;1.2832378000021;111;0.249976965831593;0;2.0081112422049;0;3;-72;NaN;1;-75;NaN;0;1;0;NaN;0
2;3;85;122;151;165;1.04204600001685;60;0.249981770990416;0.249981244793162;2.0081034025643;2.00811070785858;3;8;-29;1;14;15.9818181818182;1;0;0;1.04204600001685;0
2;3;86;22;2;8;0.958788600051776;172;0.24998296587728;0.249969355296344;2.00811171578243;2.00810721842572;3;-31;20;1;6;7.98181818181818;0;0;0;0.958788600051776;0
2;3;87;105;106;98;2.25846670009196;14;0.249978205189109;0.249969568569213;2.00811671558768;2.00810415507294;3;76;-1;1;-8;-6.01818181818182;0;0;0;2.25846670009196;0
2;3;88;23;145;158;1.30017880001105;10;0.24996929988265;0.249975681537762;2.00811371067539;2.00810674182139;3;-39;58;1;13;14.9818181818182;0;0;0;1.30017880001105;0
2;3;89;143;20;21;0.98366229981184;136;0.249981320928782;0.249970673583448;2.00811095535755;2.00810683937743;3;-55;-57;1;1;2.98181818181818;0;0;0;0.98366229981184;0
1;3;90;NaN;6;19;1.38318150001578;88;0.249982337001711;0;2.00810199440457;0;3;14;NaN;1;13;14.9818181818182;0;0;0;1.38318150001578;0
1;4;91;NaN;69;69;1.71666030003689;97;0.249977568164468;0;2.00810961588286;0;4;-63;NaN;1;0;NaN;0;0;1;1.71666030003689;0
1;4;92;NaN;88;93;1.44158099987544;109;0.249979844549671;0;2.00811354466714;0;4;-19;NaN;1;5;6.98181818181818;0;0;0;1.44158099987544;0
2;4;93;80;41;25;1.29129470000044;140;0.24997503682971;0.249970897566527;2.00811027362943;2.00811317353509;4;47;39;1;-16;-14.0181818181818;0;0;0;1.29129470000044;0
2;4;94;13;163;172;1.38375400006771;44;0.249981713015586;0.249965255381539;2.00810988945886;2.00811100774445;4;58;30;1;9;10.9818181818182;0;0;0;1.38375400006771;0
1;4;95;NaN;68;54;1.3749346002005;7;0.249963963171467;0;2.00811663153581;0;4;-85;NaN;1;-14;-12.0181818181818;0;0;0;1.3749346002005;0
2;4;96;78;56;70;2.36705509992316;160;0.249974536709487;0.249970744829625;2.0081162895076;2.00810596044175;4;12;22;1;14;15.9818181818182;0;0;0;2.36705509992316;0
2;4;97;152;158;161;1.66717529995367;31;0.249978884123266;0.24997216835618;2.00810716045089;1.99976252391934;4;78;-6;1;3;4.98181818181818;0;0;0;1.66717529995367;0
1;4;98;NaN;175;168;1.71648219996132;132;0.249974707840011;0;2.00810757116415;0;4;-17;NaN;1;-7;-5.01818181818182;0;0;0;1.71648219996132;0
1;4;99;NaN;33;27;1.0738799998071;141;0.24997150269337;0;2.00811564456671;0;4;-38;NaN;1;-6;-4.01818181818182;0;0;0;1.0738799998071;0
2;4;100;19;158;164;1.03350779996254;73;0.249971834011376;0.249972855206579;2.00811172905378;2.00810879748315;4;55;41;1;6;7.98181818181818;0;0;0;1.03350779996254;0
2;4;101;16;3;2;1.29204820003361;21;0.249982565641403;0.249979529064149;1.99976917915046;2.00810809992254;4;-25;13;1;-1;0.981818181818182;0;0;0;1.29204820003361;0
2;4;102;99;10;11;1.26708230003715;126;0.249983021058142;0.249973644968122;2.00810607895255;2.00811020005494;4;-7;89;1;1;2.98181818181818;0;0;0;1.26708230003715;0
1;4;103;NaN;8;6;1.25001740013249;163;0.249974723905325;0;2.00811682874337;0;4;2;NaN;1;-2;-0.0181818181818181;0;0;0;1.25001740013249;0
2;4;104;160;91;176;1.08251650002785;145;0.249981339322403;0.249972183955833;2.00811183662154;2.00811183452606;4;-83;69;1;85;NaN;0;1;0;NaN;0
1;4;105;NaN;87;92;1.34153410000727;56;0.249977902509272;0;2.00811305781826;0;4;4;NaN;1;5;6.98181818181818;1;0;0;1.34153410000727;0
2;4;106;123;139;136;1.19147050008178;98;0.249977421015501;0.249974802834913;2.00810680002905;2.00811024196446;4;-52;-16;1;-3;-1.01818181818182;0;0;0;1.19147050008178;0
2;4;107;20;6;10;1.51690669986419;25;0.249977860599756;0.249968310352415;2.00810828432441;2.00811475515366;4;-47;14;1;4;5.98181818181818;0;0;0;1.51690669986419;0
2;4;108;105;165;175;1.00851909979247;115;0.249978805426508;0.249975623562932;2.00811353162862;2.00810334202833;4;21;-60;1;10;11.9818181818182;0;0;0;1.00851909979247;0
1;4;109;NaN;19;7;1.61737339990214;69;0.2499668688979;0;2.0081209205091;0;4;-34;NaN;1;-12;-10.0181818181818;0;0;0;1.61737339990214;0
1;4;110;NaN;53;32;1.19929979997687;147;0.24998256820254;0;2.0081066316925;0;4;-34;NaN;1;-21;-19.0181818181818;0;0;0;1.19929979997687;0
2;4;111;69;16;15;1.9501414000988;27;0.24998562107794;0.249968955060467;2.00810351851396;2.00811427109875;4;37;53;1;-1;0.981818181818182;0;0;0;1.9501414000988;0
1;4;112;NaN;167;15;1.31655200012028;107;0.249972415622324;0;2.00810787361115;0;4;29;NaN;1;28;NaN;0;1;0;NaN;0
1;4;113;NaN;46;48;1.87420809990726;156;0.249985005240887;0;2.00810243934393;0;4;-59;NaN;1;2;3.98181818181818;0;0;0;1.87420809990726;0
1;4;114;NaN;46;48;1.15710240020417;160;0.249974692007527;0;2.00811058701947;0;4;0;NaN;1;2;3.98181818181818;0;0;0;1.15710240020417;0
1;4;115;NaN;122;107;1.83311960007995;129;0.249992902390659;0;2.00809780019335;0;4;-76;NaN;1;-15;-13.0181818181818;0;0;0;1.83311960007995;0
2;4;116;127;42;52;1.65856459992938;93;0.249980579130352;0.249967539450154;2.0081090524327;2.00811338704079;4;80;85;1;10;11.9818181818182;0;0;0;1.65856459992938;0
1;4;117;NaN;22;40;0.807356999954209;40;0.249981062952429;0;2.00810831575654;0;4;20;NaN;1;18;19.9818181818182;0;0;0;0.807356999954209;0
2;4;118;155;128;158;0.71705439989455;158;0.249971379060298;0.249968510353938;2.00811408669688;2.00811237632297;4;74;27;1;30;NaN;0;1;0;NaN;0
2;4;119;49;95;94;1.61693570017815;2;0.249972321093082;0.249978257808834;2.00811533932574;2.00809915270656;4;33;-46;1;-1;0.981818181818182;0;0;0;1.61693570017815;0
1;4;120;NaN;56;66;1.21661560004577;30;0.249978641746566;0;2.00811130274087;0;4;39;NaN;1;10;11.9818181818182;0;0;0;1.21661560004577;0
1;5;121;NaN;142;146;1.05811890005134;1;0.249974334146827;0;2.008113570977;0;5;-86;NaN;1;4;NaN;0;0;1;1.05811890005134;0
1;5;122;NaN;12;21;1.01563640008681;40;0.249971992103383;0;2.00811183662154;0;5;-50;NaN;1;9;10.9818181818182;0;0;0;1.01563640008681;0
2;5;123;87;27;18;1.04039969993755;157;0.24996848963201;0.249971929006279;2.0081183235161;2.008110815892;5;-15;60;1;-9;-7.01818181818182;0;0;0;1.04039969993755;0
2;5;124;19;69;24;1.09189909999259;166;0.249970552511513;0.249966842122376;2.00811281846836;2.00811009458266;5;-42;-50;1;-45;NaN;0;1;0;NaN;0
2;5;125;147;98;97;1.38225060002878;172;0.249982394743711;0.249973470810801;2.00810771319084;2.0081123423297;5;-29;49;1;-1;0.981818181818182;0;0;0;1.38225060002878;0
1;5;126;NaN;147;150;1.56566799990833;0;0.249973581638187;0;2.00810943171382;0;5;-49;NaN;1;3;4.98181818181818;0;0;0;1.56566799990833;0
2;5;127;58;41;41;1.56561359995976;175;0.249982023844495;0.249976628925651;2.00811139983125;2.00811140262522;5;-74;17;1;0;1.98181818181818;0;0;0;1.56561359995976;0
2;5;128;156;93;95;1.18365669995546;98;0.249973384430632;0.249978342093527;2.00812288117595;2.00810447358526;5;-52;63;1;2;3.98181818181818;0;0;0;1.18365669995546;0
2;5;129;133;66;69;1.31528860004619;114;0.249972465680912;0.249971744604409;2.00811815774068;2.00810580002144;5;27;67;1;3;4.98181818181818;0;0;0;1.31528860004619;0
1;5;130;NaN;175;178;1.20804659998976;20;0.249983460642397;0;2.00810543657281;0;5;71;NaN;1;3;4.98181818181818;0;0;0;1.20804659998976;0
1;5;131;NaN;74;70;1.05832240008749;0;0.249983449932188;0;2.00811160239391;0;5;-79;NaN;1;-4;-2.01818181818182;0;0;0;1.05832240008749;0
1;5;132;NaN;20;36;0.99872829997912;171;0.249972268473357;0;2.00811608391814;0;5;54;NaN;1;16;17.9818181818182;0;0;0;0.99872829997912;0
2;5;133;111;145;146;1.31699929991737;16;0.249972289195284;0.249970202567056;2.00810878165066;2.00811224197969;5;55;-34;1;1;2.98181818181818;0;0;0;1.31699929991737;0
1;5;134;NaN;131;108;1.55832670000382;61;0.249981055501848;0;2.00811197352596;0;5;14;NaN;1;-23;-21.0181818181818;0;0;0;1.55832670000382;0
1;5;135;NaN;67;55;1.71473390003666;108;0.249979065963998;0;2.0081094999332;0;5;64;NaN;1;-12;-10.0181818181818;0;0;0;1.71473390003666;0
1;5;136;NaN;127;120;2.14902290003374;60;0.249978318344802;0;2.00811016070656;0;5;-60;NaN;1;-7;-5.01818181818182;0;0;0;2.14902290003374;0
1;5;137;NaN;78;68;0.932505700038746;88;0.249974973732606;0;2.00810808409005;0;5;49;NaN;1;-10;-8.01818181818182;0;0;0;0.932505700038746;0
1;5;138;NaN;133;127;1.6165765998885;69;0.249981310451403;0;2.00810425542295;0;5;-55;NaN;1;-6;-4.01818181818182;0;0;0;1.6165765998885;0
1;5;139;NaN;107;110;1.31660849996842;11;0.249942360445857;0;2.00811398681253;0;5;26;NaN;1;3;4.98181818181818;0;0;0;1.31660849996842;0
2;5;140;118;97;108;1.56705629988573;61;0.249976710416377;0.24997294228524;2.00810634228401;2.008109618444;5;10;21;1;11;12.9818181818182;0;0;0;1.56705629988573;0
2;5;141;175;142;128;1.78359750006348;108;0.249979905318469;0.249973813304678;2.00811157375574;2.00810517091304;5;-45;33;1;-14;-12.0181818181818;0;0;0;1.78359750006348;0
1;5;142;NaN;178;7;1.19151519984007;30;0.249973591882735;0;2.00810847384855;0;5;-36;NaN;1;9;10.9818181818182;0;0;0;1.19151519984007;0
2;5;143;175;177;176;1.60785509995185;58;0.249986405251548;0.24996308167465;2.0081053157337;2.00811786320992;5;1;-2;1;-1;0.981818181818182;0;0;0;1.60785509995185;0
2;5;144;33;142;3;1.22401979984716;106;0.249984689289704;0.249981221277267;1.99976560520008;2.00810215249658;5;35;71;1;41;NaN;0;1;0;NaN;0
2;5;145;11;106;171;0.983721799915656;117;0.249981363071129;0.249967152718455;2.00810741586611;2.00810987642035;5;36;85;1;65;NaN;0;1;0;NaN;0
2;5;146;80;166;160;1.61571340006776;31;0.249975623795763;0.249968784395605;2.00811573932879;2.00811402895488;5;-60;-86;1;-6;-4.01818181818182;1;0;0;1.61571340006776;0
2;5;147;93;10;16;2.04122440004721;101;0.249977407744154;0.249969168333337;2.00811592629179;2.00811534724198;5;-24;83;1;6;7.98181818181818;0;0;0;2.04122440004721;0
2;5;148;48;132;146;1.56575569999404;78;0.249972094781697;0.249969568336383;2.00811858149245;2.0081159316469;5;58;-84;1;14;15.9818181818182;0;0;0;1.56575569999404;0
1;5;149;NaN;121;140;1.25824270001613;68;0.249968047486618;0;2.00811651046388;0;5;11;NaN;1;19;20.9818181818182;0;0;0;1.25824270001613;0
1;5;150;NaN;89;79;1.42508149985224;152;0.249980589607731;0;2.00810816022567;0;5;32;NaN;1;-10;-8.01818181818182;0;0;0;1.42508149985224;0
1;6;151;NaN;104;112;0.707791700027883;116;0.249973687110469;0;2.00811049994081;0;6;-15;NaN;1;8;NaN;0;0;1;0.707791700027883;0
1;6;152;NaN;115;130;1.09033769997768;102;0.249985497212037;0;2.0081100394018;0;6;-11;NaN;1;15;16.9818181818182;0;0;0;1.09033769997768;0
2;6;153;128;145;138;1.27528290008195;56;0.249976713210344;0.24996697390452;2.00811925507151;2.00811217096634;6;-30;-17;1;-7;-5.01818181818182;0;0;0;1.27528290008195;0
2;6;154;133;141;126;1.44928169995546;62;0.249975978862494;0.249967891955748;2.00811596843414;2.00810965779237;6;4;-8;1;-15;-13.0181818181818;0;0;0;1.44928169995546;0
2;6;155;159;173;165;1.12444970011711;125;0.249981968430802;0.249970839358866;2.00811015767977;2.00811411580071;6;-32;-14;1;-8;-6.01818181818182;0;0;0;1.12444970011711;0
2;6;156;180;117;122;1.12523410003632;95;0.249973905272782;0.249971947399899;1.99977188417688;2.00810853950679;6;56;63;1;5;6.98181818181818;0;0;0;1.12523410003632;0
2;6;157;65;137;127;2.03263540007174;119;0.249975505284965;0.249981313245371;2.00810999446549;2.00810501282103;6;-20;-72;1;-10;-8.01818181818182;0;0;0;2.03263540007174;0
2;6;158;77;14;17;1.18369740014896;122;0.249983363086358;0.24997343448922;2.00810463936068;2.00811274466105;6;-57;63;1;3;4.98181818181818;0;0;0;1.18369740014896;0
2;6;159;154;46;46;0.975284100044519;24;0.249982079025358;0.249974068254232;2.0081094999332;2.00810868712142;6;-32;-72;1;0;1.98181818181818;0;0;0;0.975284100044519;0
1;6;160;NaN;136;140;1.1749871999491;8;0.249908347148448;0;2.00810792879201;0;6;-90;NaN;1;4;5.98181818181818;0;0;0;1.1749871999491;0
2;6;161;77;57;26;1.24105690000579;87;0.249980084132403;0.249980457825586;2.0081115711946;2.00810691062361;6;79;20;1;-31;NaN;0;1;0;NaN;0
1;6;162;NaN;70;49;0.758199099916965;49;0.249969421187416;0;2.00811080518179;0;6;-13;NaN;1;-21;-19.0181818181818;0;0;0;0.758199099916965;0
2;6;163;69;9;22;0.900368199916556;160;0.249978478765115;0.249977300176397;2.00811276840977;2.00811343151145;6;61;60;1;13;14.9818181818182;0;0;0;0.900368199916556;0
1;6;164;NaN;91;91;2.5664751001168;0;0.249985774047673;0;2.00810160278343;0;6;-82;NaN;1;0;1.98181818181818;0;0;0;2.5664751001168;0
2;6;165;14;94;20;0.991882300004363;63;0.249982197303325;0.249966058181599;2.00810781843029;2.00811897357926;6;-3;-80;1;-74;NaN;0;1;0;NaN;0
1;6;166;NaN;166;174;2.62475589988753;126;0.249979249900207;0;2.00811089714989;0;6;-72;NaN;1;8;9.98181818181818;1;0;0;2.62475589988753;0
2;6;167;21;32;30;1.73261389997788;34;0.2499802603852;0.249967376468703;2.00811690255068;2.00811405526474;6;-46;-11;1;-2;-0.0181818181818181;0;0;0;1.73261389997788;0
1;6;168;NaN;91;90;0.799798900028691;109;0.24996863421984;0;2.0081184131559;0;6;-59;NaN;1;-1;0.981818181818182;0;0;0;0.799798900028691;0
2;6;169;56;143;148;1.71565539995208;54;0.249978776322678;0.249974270816892;2.0081125262659;2.00811224221252;6;-52;-87;1;5;6.98181818181818;0;0;0;1.71565539995208;0
1;6;170;NaN;128;132;1.8903347000014;57;0.249961721012369;0;2.00811684457585;0;6;15;NaN;1;4;5.98181818181818;0;0;0;1.8903347000014;0
1;6;171;NaN;118;125;1.00828760000877;110;0.249977479223162;0;2.00811758125201;0;6;10;NaN;1;7;8.98181818181818;0;0;0;1.00828760000877;0
1;6;172;NaN;166;167;1.04993270011619;33;0.249981010332704;0;2.00810622656718;0;6;-48;NaN;1;1;2.98181818181818;0;0;0;1.04993270011619;0
1;6;173;NaN;87;94;2.20719330012798;14;0.249978047097102;0;2.0081093525514;0;6;79;NaN;1;7;8.98181818181818;0;0;0;2.20719330012798;0
2;6;174;132;38;25;0.697704499820247;25;0.249981918372214;0.249970384174958;2.00810778699815;2.00810795510188;6;49;-86;1;-13;-11.0181818181818;0;0;0;0.697704499820247;0
1;6;175;NaN;75;81;2.04154050000943;114;0.24998302385211;0;2.00811015255749;0;6;-37;NaN;1;6;7.98181818181818;0;0;0;2.04154050000943;0
1;6;176;NaN;20;24;1.11542899999768;164;0.249985492089763;0;2.00811044452712;0;6;55;NaN;1;4;5.98181818181818;0;0;0;1.11542899999768;0
2;6;177;68;22;20;1.65843229996972;92;0.249978207983077;0.249965386930853;2.00811071554199;2.00810866826214;6;-2;46;1;-2;-0.0181818181818181;0;0;0;1.65843229996972;0
1;6;178;NaN;70;75;1.78194199991412;110;0.249983007553965;0;2.00811069202609;0;6;-48;NaN;1;5;6.98181818181818;0;0;0;1.78194199991412;0
2;6;179;95;170;163;1.67403700016439;60;0.24998117890209;0.249971471028402;2.00810824218206;2.00810651574284;6;80;-75;1;-7;-5.01818181818182;0;0;0;1.67403700016439;0
1;6;180;NaN;170;161;1.37484359997325;69;0.249983692076057;0;2.00811014208011;0;6;0;NaN;1;-9;-7.01818181818182;0;0;0;1.37484359997325;0
2;7;181;168;59;50;1.45792439999059;116;0.249982323497534;0.24996532080695;2.00810932088643;2.008113210788;7;-69;-71;1;-9;NaN;0;0;1;1.45792439999059;0
2;7;182;101;125;128;1.24935709987767;43;0.24997594486922;0.249979673884809;2.00811246572994;2.00810817372985;7;-66;-24;1;3;4.98181818181818;0;0;0;1.24935709987767;0
2;7;183;80;45;38;0.999275800073519;7;0.249977105297148;0.249969389522448;2.00811574212275;2.00811675237492;7;80;35;1;-7;-5.01818181818182;0;0;0;0.999275800073519;0
1;7;184;NaN;146;148;0.874935499858111;148;0.249978315550834;0;2.00810724194162;0;7;79;NaN;1;2;3.98181818181818;0;0;0;0.874935499858111;0
2;7;185;93;91;93;1.19145540008321;142;0.249978881562129;0.249976889695972;2.00811429461464;2.00810962356627;7;55;2;1;2;3.98181818181818;0;0;0;1.19145540008321;0
2;7;186;18;95;94;1.65026529994793;85;0.249982621055096;0.249974847538397;2.00810671551153;2.00811033928767;7;-4;-77;1;-1;0.981818181818182;0;0;0;1.65026529994793;0
1;7;187;NaN;47;66;0.933314999798313;74;0.249976112972945;0;2.00811777636409;0;7;48;NaN;1;19;20.9818181818182;0;0;0;0.933314999798313;0
2;7;188;125;42;50;1.50732280011289;150;0.24997920775786;0.249972042161971;2.00811051321216;2.0081147341989;7;5;83;1;8;9.98181818181818;0;0;0;1.50732280011289;0
1;7;189;NaN;11;11;1.35734400013462;119;0.2499821158126;0;2.00810517114587;0;7;31;NaN;1;0;1.98181818181818;0;0;0;1.35734400013462;0
2;7;190;107;115;117;1.15861249994487;158;0.249982333974913;0.249972155317664;2.00811374210753;2.00811427109875;7;76;-8;1;2;3.98181818181818;0;0;0;1.15861249994487;0
1;7;191;NaN;135;140;0.716559400083497;140;0.249983063200489;0;2.00810641283169;0;7;-20;NaN;1;5;6.98181818181818;0;0;0;0.716559400083497;0
2;7;192;78;163;162;1.4335811000783;87;0.249984081368893;0.249975781422108;2.0081052291207;2.00810651853681;7;-28;-85;1;-1;0.981818181818182;0;0;0;1.4335811000783;0
2;7;193;59;14;7;0.849044800037518;165;0.249977078987285;0.249970355303958;2.00811325525865;2.00811194721609;7;-31;45;1;-7;-5.01818181818182;0;0;0;0.849044800037518;0
1;7;194;NaN;100;99;2.04156020004302;144;0.249975749989972;0;2.00811788416468;0;7;-86;NaN;1;-1;0.981818181818182;0;0;0;2.04156020004302;0
1;7;195;NaN;177;2;0.500012899981812;2;0.249967057956383;0;2.00811614189297;0;7;-77;NaN;1;5;6.98181818181818;0;0;0;0.500012899981812;0
1;7;196;NaN;91;99;1.04160790005699;83;0.249974836828187;0;2.00810811575502;0;7;86;NaN;1;8;9.98181818181818;0;0;0;1.04160790005699;0
1;7;197;NaN;99;88;1.44868039991707;155;0.249979605199769;0;2.00812584185041;0;7;-8;NaN;1;-11;-9.01818181818182;0;0;0;1.44868039991707;0
1;7;198;NaN;77;80;1.3082860999275;57;0.249967310577631;0;2.00811472884379;0;7;22;NaN;1;3;4.98181818181818;0;0;0;1.3082860999275;0
1;7;199;NaN;35;59;1.26661879988387;31;0.249988126568496;0;2.00810508430004;0;7;42;NaN;1;24;25.9818181818182;0;0;0;1.26661879988387;0
1;7;200;NaN;94;80;1.43377120001242;167;0.249981894856319;0;2.00811188411899;0;7;-59;NaN;1;-14;-12.0181818181818;0;0;0;1.43377120001242;0
2;7;201;35;168;157;1.29907579999417;55;0.249984457856044;0.249974384205416;2.00810921844095;2.0081113895867;7;-74;47;1;-11;-9.01818181818182;0;0;0;1.29907579999417;0
1;7;202;NaN;85;82;1.58228310011327;0;0.249979081563652;0;2.00811230763793;0;7;83;NaN;1;-3;-1.01818181818182;0;0;0;1.58228310011327;0
1;7;203;NaN;139;127;1.3832588000223;33;0.249975381419063;0;2.00811483152211;0;7;-54;NaN;1;-12;-10.0181818181818;0;0;0;1.3832588000223;0
2;7;204;24;79;87;0.783804300008342;87;0.249979476211593;0.249972202815115;2.00810932647437;2.00811529997736;7;60;-55;1;8;9.98181818181818;0;0;0;0.783804300008342;0
2;7;205;55;130;124;1.40029010013677;120;0.249978073639795;0.24996887636371;2.00811311579309;2.00811212649569;7;-51;-75;1;-6;-4.01818181818182;0;0;0;1.40029010013677;0
2;7;206;55;75;70;1.10031690006144;16;0.249976568389684;0.249972494784743;2.0081103160046;2.00811753422022;7;55;-20;1;-5;-3.01818181818182;0;0;0;1.10031690006144;0
2;7;207;138;159;168;1.15861049992964;90;0.24998008669354;0.249968818388879;2.00810967641883;2.00811048666947;7;-84;-21;1;9;10.9818181818182;0;0;0;1.15861049992964;0
1;7;208;NaN;65;75;1.23328629997559;107;0.249981010332704;0;2.00811191857792;0;7;-86;NaN;1;10;11.9818181818182;0;0;0;1.23328629997559;0
1;7;209;NaN;44;52;1.07495310017839;179;0.249980146996677;0;2.00811464223079;0;7;21;NaN;1;8;9.98181818181818;0;0;0;1.07495310017839;0
2;7;210;136;71;61;0.458699999842793;61;0.249976131366566;0.249975997256115;2.00811018166132;2.00810314482078;7;-27;65;1;-10;-8.01818181818182;0;0;0;0.458699999842793;0
1;8;211;NaN;4;164;2.81634810008109;124;0.249991894699633;0;2.00809826026671;0;8;67;NaN;1;-20;NaN;0;0;1;2.81634810008109;0
1;8;212;NaN;173;175;1.37382370000705;63;0.249980220803991;0;2.00811035814695;0;8;11;NaN;1;2;3.98181818181818;0;0;0;1.37382370000705;0
2;8;213;149;72;61;0.650259200017899;61;0.249964744783938;0.249966705217957;2.0081128552556;2.00810707896017;8;-79;77;1;-11;-9.01818181818182;0;0;0;0.650259200017899;0
2;8;214;55;4;171;1.04930289997719;30;0.249977463157848;0.249971181387082;2.00810968386941;2.00811358960345;8;68;51;1;-13;-11.0181818181818;0;0;0;1.04930289997719;0
2;8;215;31;93;108;0.875231199897826;44;0.249980146996677;0.24997662124224;2.00810781051405;2.00810920773074;8;-89;-62;1;15;16.9818181818182;0;0;0;0.875231199897826;0
2;8;216;53;117;121;1.12437560013495;76;0.249984092079103;0.249969123629853;2.00811329996213;2.00811548950151;8;-24;-64;1;4;5.98181818181818;0;0;0;1.12437560013495;0
1;8;217;NaN;23;34;1.78228339995258;179;0.249985434114933;0;2.00810505799018;0;8;-86;NaN;1;11;12.9818181818182;0;0;0;1.78228339995258;0
1;8;218;NaN;27;24;1.59974560001865;91;0.249982402659953;0;2.00810574181378;0;8;-4;NaN;1;-3;-1.01818181818182;0;0;0;1.59974560001865;0
1;8;219;NaN;52;24;0.691824899986386;23;0.249986776150763;0;2.00810725800693;0;8;-25;NaN;1;-28;-26.0181818181818;0;0;0;0.691824899986386;0
2;8;220;149;75;81;1.12530800001696;127;0.249972210498527;0.249979699961841;2.00810789712705;2.00810808944516;8;-23;74;1;6;7.98181818181818;0;0;0;1.12530800001696;0
1;8;221;NaN;133;114;1.340333199827;85;0.249985131435096;0;2.00810838676989;0;8;-58;NaN;1;-19;-17.0181818181818;0;0;0;1.340333199827;0
2;8;222;27;29;21;1.19183479994535;138;0.249978679232299;0.249972684308887;2.00810857350007;2.00810641306452;8;-76;-2;1;-8;-6.01818181818182;0;0;0;1.19183479994535;0
1;8;223;NaN;36;38;1.1660450999625;91;0.249980981694534;0;2.00810879981145;0;8;-7;NaN;1;2;3.98181818181818;0;0;0;1.1660450999625;0
1;8;224;NaN;85;86;1.33169419993646;136;0.249982299748808;0;2.00810791854747;0;8;-49;NaN;1;1;2.98181818181818;0;0;0;1.33169419993646;0
2;8;225;45;179;172;1.85005340003408;128;0.249980263179168;0.249974881531671;2.0081085129641;2.00810922891833;8;86;46;1;-7;-5.01818181818182;0;0;0;1.85005340003408;0
1;8;226;NaN;48;38;1.02490349998698;15;0.249982781708241;0;2.00810179719701;0;8;-49;NaN;1;-10;-8.01818181818182;0;0;0;1.02490349998698;0
1;8;227;NaN;143;142;1.49863189994358;66;0.249978892039508;0;2.008113326272;0;8;85;NaN;1;-1;0.981818181818182;0;0;0;1.49863189994358;0
2;8;228;93;157;154;1.3419164000079;41;0.249985481379554;0.249975676415488;2.00810475251637;2.00810514972545;8;-14;-64;1;-3;-1.01818181818182;0;0;0;1.3419164000079;0
1;8;229;NaN;169;149;1.03324200003408;125;0.249981981702149;0;2.00811816542409;0;8;-12;NaN;1;-20;-18.0181818181818;0;0;0;1.03324200003408;0
2;8;230;178;46;34;0.716598900035024;28;0.249970323638991;0.249968097312376;2.00810834998265;2.00811059214175;8;-57;-48;1;-12;-10.0181818181818;0;0;0;0.716598900035024;0
2;8;231;117;43;39;1.04897890007123;164;0.249983278801665;0.249975620768964;2.00810615788214;2.00811144756153;8;3;74;1;-4;-2.01818181818182;0;0;0;1.04897890007123;0
2;8;232;65;145;24;0.635873100021854;24;0.24998345784843;0.249970676377416;2.00811539730057;2.00810722378083;8;78;-80;1;59;NaN;0;1;0;NaN;0
1;8;233;NaN;90;90;1.70817180001177;60;0.249980768188834;0;2.00811061053537;0;8;55;NaN;1;0;1.98181818181818;1;0;0;1.70817180001177;0
2;8;234;84;153;166;1.07532489998266;146;0.24997427361086;0.249970313161612;2.00811194744892;2.00811285804957;8;-63;-69;1;13;14.9818181818182;0;0;0;1.07532489998266;0
2;8;235;103;44;28;1.13380589988083;117;0.249981647124514;0.249972934368998;2.00810718163848;2.00810651341453;8;-71;59;1;-16;-14.0181818181818;0;0;0;1.13380589988083;0
1;8;236;NaN;3;174;1.05820990004577;51;0.249980037100613;0;2.00811304454692;0;8;41;NaN;1;-9;-7.01818181818182;0;0;0;1.05820990004577;0
1;8;237;NaN;96;177;1.85733280004933;69;0.249975689454004;0;2.00811456074007;0;8;87;NaN;1;81;NaN;0;1;0;NaN;0
2;8;238;70;153;159;1.29194419994019;26;0.249966063303873;0.249967041891068;2.00811353931203;2.00811140285805;8;-57;-83;1;6;7.98181818181818;1;0;0;1.29194419994019;0
1;8;239;NaN;167;162;1.90821060002781;74;0.24996732105501;0;2.00811955239624;0;8;-14;NaN;1;-5;-3.01818181818182;0;0;0;1.90821060002781;0
2;8;240;128;72;70;1.48307380010374;129;0.249983023619279;0.249971813289449;2.00811261031777;2.00811331835575;8;-85;56;1;-2;-0.0181818181818181;0;0;0;1.48307380010374;0
1;9;241;NaN;163;162;0.692688700044528;19;0.249975478742272;0;1.9997774369549;0;9;89;NaN;1;-1;NaN;0;0;1;0.692688700044528;0
2;9;242;2;146;135;1.157889300026;23;0.249976991908625;0.249979089479893;2.00811558705755;2.00810708710924;9;17;36;1;-11;-9.01818181818182;0;0;0;1.157889300026;0
1;9;243;NaN;173;174;1.29976759990677;98;0.249982855282724;0;1.99976563407108;0;9;-27;NaN;1;1;2.98181818181818;0;0;0;1.29976759990677;0
2;9;244;133;74;39;1.08242360013537;27;0.24997962359339;0.249974576290697;2.00810833950527;2.00811402895488;9;-81;59;1;-35;NaN;0;1;0;NaN;0
1;9;245;NaN;78;82;1.05823269998655;151;0.24998366064392;0;2.00810327101499;0;9;-4;NaN;1;4;5.98181818181818;0;0;0;1.05823269998655;0
2;9;246;115;28;42;1.03273319988512;177;0.249979150015861;0.249971779063344;2.00811168388464;2.00811406574212;9;50;87;1;14;15.9818181818182;0;0;0;1.03273319988512;0
2;9;247;1;167;163;0.568725500022992;163;0.249976605176926;0.249970126431435;2.00811132905073;2.00810842891224;9;41;14;1;-4;-2.01818181818182;0;0;0;0.568725500022992;0
1;9;248;NaN;7;7;1.69129520002753;136;0.249976268736646;0;2.00811538123526;0;9;-20;NaN;1;0;1.98181818181818;0;0;0;1.69129520002753;0
2;9;249;80;103;110;1.19916739990003;150;0.249983163084835;0.249975573737174;2.00810470525175;2.00811054208316;9;84;-23;1;7;8.98181818181818;0;0;0;1.19916739990003;0
2;9;250;84;86;69;0.932934799930081;5;0.249973699916154;0.249965086812153;1.99977125274017;2.00810731318779;9;17;-2;1;-17;-15.0181818181818;0;0;0;0.932934799930081;0
1;9;251;NaN;85;77;1.9914182999637;106;0.249974860576913;0;2.0081100447569;0;9;1;NaN;1;-8;-6.01818181818182;0;0;0;1.9914182999637;0
2;9;252;44;180;168;1.13401939999312;127;0.249971489654854;0.249975099926814;2.00812135776505;2.00810944731347;9;85;44;1;-12;-10.0181818181818;0;0;0;1.13401939999312;0
2;9;253;116;154;146;1.15872039995156;60;0.249977520899847;0.249974913196638;2.00810921587981;2.0081075290218;9;26;-38;1;-8;-6.01818181818182;0;0;0;1.15872039995156;0
2;9;254;37;74;80;0.90710539999418;107;0.249963549664244;0.249977515777573;2.00811683712527;2.00810872623697;9;80;-37;1;6;7.98181818181818;0;0;0;0.90710539999418;0
1;9;255;NaN;116;121;1.10740379989147;155;0.249964505201206;0;2.00812221853994;0;9;-42;NaN;1;5;6.98181818181818;0;0;0;1.10740379989147;0
2;9;256;58;103;106;1.16696569998749;82;0.249980200082064;0.249972218414769;2.00810558930971;2.00811475794762;9;13;-45;1;3;4.98181818181818;0;0;0;1.16696569998749;0
1;9;257;NaN;128;126;0.666587500134483;126;0.249986081384122;0;2.00810630014166;0;9;-25;NaN;1;-2;-0.0181818181818181;0;0;0;0.666587500134483;0
1;9;258;NaN;156;151;1.01606620009989;129;0.249978018458933;0;2.00811752094887;0;9;-28;NaN;1;-5;-3.01818181818182;0;0;0;1.01606620009989;0
1;9;259;NaN;118;114;1.27418880001642;91;0.249968108022586;0;2.00811568135396;0;9;38;NaN;1;-4;-2.01818181818182;0;0;0;1.27418880001642;0
1;9;260;NaN;111;114;0.566533100092784;114;0.249984863214195;0;2.00811364199035;0;9;7;NaN;1;3;4.98181818181818;0;0;0;0.566533100092784;0
2;9;261;180;171;178;1.33311360003427;62;0.249970002798364;0.24997436045669;2.00811934727244;2.0081094133202;9;-60;9;1;7;8.98181818181818;0;0;0;1.33311360003427;0
1;9;262;NaN;149;150;1.31573530007154;58;0.24996708962135;0;2.00811589462683;0;9;22;NaN;1;1;2.98181818181818;0;0;0;1.31573530007154;0
2;9;263;70;90;88;2.05019440012984;32;0.24998298403807;0.249972328776494;2.0081070472952;2.00811101589352;9;59;-20;1;-2;-0.0181818181818181;0;0;0;2.05019440012984;0
1;9;264;NaN;46;47;1.39892109995708;149;0.249971068231389;0;2.00810530013405;0;9;44;NaN;1;1;2.98181818181818;0;0;0;1.39892109995708;0
2;9;265;11;24;17;0.758663600077853;17;0.249974905047566;0.249966457951814;2.0081138999667;2.00811061565764;9;22;-13;1;-7;-5.01818181818182;0;0;0;0.758663600077853;0
2;9;266;57;118;124;2.04887330019847;34;0.249981591943651;0.249969352735206;2.0081042132806;2.00811035255902;9;86;-61;1;6;7.98181818181818;0;0;0;2.04887330019847;0
2;9;267;155;17;28;1.23379540001042;115;0.249977494357154;0.249968007672578;2.00811408716254;2.00810779235326;9;-79;-42;1;11;12.9818181818182;0;0;0;1.23379540001042;0
1;9;268;NaN;63;35;0.583236699923873;35;0.249978205189109;0;2.00811499729753;0;9;-46;NaN;1;-28;-26.0181818181818;0;0;0;0.583236699923873;0
1;9;269;NaN;4;177;1.02492760005407;136;0.249977518571541;0;2.0081128841266;0;9;59;NaN;1;-7;-5.01818181818182;0;0;0;1.02492760005407;0
1;9;270;NaN;57;45;1.22479830007069;21;0.249980707885697;0;2.00810393923894;0;9;-53;NaN;1;-12;-10.0181818181818;0;0;0;1.22479830007069;0
1;10;271;NaN;37;33;1.222197300056;90;0.249967515468597;0;2.00810572644696;0;10;20;NaN;1;-4;NaN;0;0;1;1.222197300056;0
2;10;272;116;155;148;1.14191300002858;122;0.24998035794124;0.249983615707606;2.00811164453626;2.00810471340083;10;62;-39;1;-7;-5.01818181818182;0;0;0;1.14191300002858;0
1;10;273;NaN;59;52;0.508250300073996;52;0.249975810293108;0;2.0081082212273;0;10;-84;NaN;1;-7;-5.01818181818182;0;0;0;0.508250300073996;0
2;10;274;2;88;68;1.09127679979429;122;0.2499781078659;0.249974379083142;2.00810858141631;2.00810502097011;10;-29;-86;1;-20;-18.0181818181818;0;0;0;1.09127679979429;0
1;10;275;NaN;169;156;1.32399610010907;98;0.249981170753017;0;2.0081111791078;0;10;-81;NaN;1;-13;-11.0181818181818;0;0;0;1.32399610010907;0
2;10;276;26;176;170;1.25030199997127;19;0.249980721157044;0.249977342085913;2.00810839980841;2.00810362654738;10;-7;30;1;-6;-4.01818181818182;0;0;0;1.25030199997127;0
2;10;277;46;138;141;1.14101669983938;123;0.249978837091476;0.24997711321339;2.00811054208316;2.00810827105306;10;38;88;1;3;4.98181818181818;0;0;0;1.14101669983938;0
2;10;278;166;115;100;1.42461970006116;173;0.249976044520736;0.249973355326802;2.00810561561957;2.00812397408299;10;23;51;1;-15;-13.0181818181818;0;0;0;1.42461970006116;0
2;10;279;37;64;68;1.34080939996056;68;0.249982889275998;0.249972678953782;2.00810778443702;2.00810763426125;10;51;-27;1;4;5.98181818181818;0;0;0;1.34080939996056;0
1;10;280;NaN;13;57;0.81634599994868;57;0.24998163129203;0;2.00811293162405;0;10;51;NaN;1;44;NaN;0;1;0;NaN;0
1;10;281;NaN;8;58;1.07498569996096;76;0.249979871092364;0;2.0081089050509;0;10;5;NaN;1;50;NaN;0;1;0;NaN;0
1;10;282;NaN;86;90;1.62361370003782;53;0.249985263217241;0;2.0081114419736;0;10;-78;NaN;1;4;5.98181818181818;1;0;0;1.62361370003782;0
1;10;283;NaN;10;14;1.44289850001223;78;0.249980552587658;0;2.00810993392952;0;10;76;NaN;1;4;5.98181818181818;0;0;0;1.44289850001223;0
2;10;284;142;48;36;1.50019799987786;81;0.249977681552991;0.249968984164298;2.00810942612588;2.00811313139275;10;-38;-86;1;-12;-10.0181818181818;0;0;0;1.50019799987786;0
2;10;285;85;135;139;1.07533889985643;108;0.249968218617141;0.249970431672409;2.00812434195541;2.00810748664662;10;-87;-50;1;4;5.98181818181818;0;0;0;1.07533889985643;0
2;10;286;113;35;40;1.58253180002794;164;0.24997913162224;0.249976628925651;2.00810625497252;2.0081027711276;10;-80;78;1;5;6.98181818181818;0;0;0;1.58253180002794;0
1;10;287;NaN;98;115;1.22521659987979;56;0.249980102526024;0;2.00810468941927;0;10;-63;NaN;1;17;18.9818181818182;0;0;0;1.22521659987979;0
2;10;288;90;109;119;1.10852920007892;22;0.249976021004841;0.249962813220918;2.00811674213037;2.00811415514909;10;-11;-19;1;10;11.9818181818182;0;0;0;1.10852920007892;0
2;10;289;173;6;7;1.09193830005825;80;0.249977821251377;0.249967026291415;2.00811134744436;2.00811055535451;10;-77;-13;1;1;2.98181818181818;0;0;0;1.09193830005825;0
2;10;290;109;8;12;1.03333639982156;166;0.249987705145031;0.249972039368004;2.00810958398506;2.00810975790955;10;-2;-79;1;4;5.98181818181818;0;0;0;1.03333639982156;0
2;10;291;21;163;175;1.42530379979871;83;0.249975847313181;0.249972650315613;2.0081127921585;2.00811178679578;10;25;38;1;12;13.9818181818182;0;0;0;1.42530379979871;0
2;10;292;110;102;94;1.50879769981839;152;0.249980862950906;0.249969458207488;2.00810962915421;2.00811343942769;10;61;8;1;-8;-6.01818181818182;0;0;0;1.50879769981839;0
1;10;293;NaN;104;95;1.54151860019192;156;0.249969278927892;0;2.00812454195693;0;10;-2;NaN;1;-9;-7.01818181818182;0;0;0;1.54151860019192;0
1;10;294;NaN;122;103;1.98174570011906;12;0.249983833869919;0;2.00810582377017;0;10;-18;NaN;1;-19;-17.0181818181818;0;0;0;1.98174570011906;0
1;10;295;NaN;123;102;1.39149009995162;57;0.249977973522618;0;2.00810905802064;0;10;-1;NaN;1;-21;-19.0181818181818;0;0;0;1.39149009995162;0
1;10;296;NaN;155;132;1.07493139989674;178;0.249975647078827;0;2.00811497634277;0;10;-32;NaN;1;-23;-21.0181818181818;0;0;0;1.07493139989674;0
2;10;297;3;1;0;1.36567369988188;127;0.249974060570821;0.249965973896906;2.00811984203756;2.00811259448528;10;-26;2;1;-1;0.981818181818182;0;0;0;1.36567369988188;0
1;10;298;NaN;108;103;0.950178700033575;28;0.249979620799422;0;1.99976944737136;0;10;73;NaN;1;-5;-3.01818181818182;0;0;0;0.950178700033575;0
1;10;299;NaN;120;100;1.7165005998686;118;0.24996798671782;0;2.00811103405431;0;10;-12;NaN;1;-20;-18.0181818181818;0;0;0;1.7165005998686;0
1;10;300;NaN;127;110;3.32465520012192;96;0.249985681381077;0;2.00810702354647;0;10;-7;NaN;1;-17;-15.0181818181818;0;0;0;3.32465520012192;0
1;1;1;NaN;73;83;2.03206619992852;76;0.249974463135004;0;2.00811428879388;0;1;NaN;NaN;2;10;11.3135888501742;NaN;0;0;2.03206619992852;0
1;1;2;NaN;27;12;2.00676060002297;76;0.249984770081937;0;2.00810454064049;0;1;46;NaN;2;-15;-13.6864111498258;0;0;0;2.00676060002297;0
2;1;3;160;11;12;2.7250237998087;115;0.249973630765453;0.249974277801812;2.00811686506495;2.00810608151369;1;16;-31;2;1;2.31358885017422;0;0;0;2.7250237998087;0
1;1;4;NaN;89;90;3.16514299996197;24;0.249983129324391;0;2.00810515927151;0;1;-78;NaN;2;1;2.31358885017422;0;0;0;3.16514299996197;0
1;1;5;NaN;77;84;2.19131599995308;25;0.249975566519424;0;2.00810993323103;0;1;12;NaN;2;7;8.31358885017422;0;0;0;2.19131599995308;0
2;1;6;6;174;171;1.9751611999236;149;0.249973062891513;0.249973618425429;2.00810939632356;2.00810758164153;1;83;12;2;-3;-1.68641114982578;0;0;0;1.9751611999236;0
1;1;7;NaN;54;61;1.21653269999661;83;0.249970248667523;0;2.00811848090962;0;1;-60;NaN;2;7;8.31358885017422;0;0;0;1.21653269999661;0
2;1;8;89;162;169;2.17501390003599;150;0.24998265132308;0.249971047975123;2.00810889643617;2.00811007781886;1;72;-73;2;7;8.31358885017422;0;0;0;2.17501390003599;0
2;1;9;143;14;1;1.38254270004109;31;0.249983429210261;0.249977229628712;2.00810868875124;2.00810291105881;1;-32;-51;2;-13;-11.6864111498258;0;0;0;1.38254270004109;0
2;1;10;59;27;20;1.49095589993522;127;0.249971088254824;0.249973792815581;2.00811321847141;2.00810367730446;1;-13;32;2;-7;-5.68641114982578;0;0;0;1.49095589993522;0
1;1;11;NaN;129;130;1.53309370018542;95;0.24997856724076;0;2.00811663991772;0;1;78;NaN;2;1;2.31358885017422;0;0;0;1.53309370018542;0
1;1;12;NaN;174;169;1.20820660004392;5;0.249979314627126;0;2.0081064812839;0;1;-45;NaN;2;-5;-3.68641114982578;0;0;0;1.20820660004392;0
2;1;13;25;62;47;1.6243401998654;140;0.249982984969392;0.249964470276609;2.00810580444522;2.00811015558429;1;-68;-37;2;-15;-13.6864111498258;0;0;0;1.6243401998654;0
1;1;14;NaN;99;105;2.14969770004973;80;0.249978366307914;0;2.00810809247196;0;1;-37;NaN;2;6;7.31358885017422;0;0;0;2.14969770004973;0
2;1;15;129;173;178;1.7751794999931;67;0.249962851405144;0.249975581187755;2.00811182591133;2.00810689269565;1;-74;-44;2;5;6.31358885017422;0;0;0;1.7751794999931;0
1;1;16;NaN;11;8;1.28311740001664;162;0.249979196116328;0;2.0081099329982;0;1;-18;NaN;2;-3;-1.68641114982578;0;0;0;1.28311740001664;0
1;1;17;NaN;102;100;1.40826670010574;169;0.249955559149384;0;2.0081141886767;0;1;89;NaN;2;-2;-0.686411149825784;0;0;0;1.40826670010574;0
1;1;18;NaN;128;153;1.56567539996468;56;0.249982858542353;0;2.0081123560667;0;1;-26;NaN;2;25;26.3135888501742;0;0;0;1.56567539996468;0
2;1;19;2;172;175;1.71699109999463;46;0.249977351631969;0.249977918341756;2.00810685916804;2.00810881890357;1;-44;10;2;3;4.31358885017422;0;0;0;1.71699109999463;0
2;1;20;110;173;172;1.54066359996796;58;0.249979136744514;0.249969748081639;2.00811023334973;2.00810365914367;1;-1;-63;2;-1;0.313588850174216;0;0;0;1.54066359996796;0
1;1;21;NaN;155;160;1.89988730009645;77;0.249978485051543;0;2.00811571115628;0;1;18;NaN;2;5;6.31358885017422;0;0;0;1.89988730009645;0
2;1;22;25;145;148;1.14185740007088;172;0.24997985525988;0.249972959281877;2.00811077025719;2.00810901843943;1;10;60;2;3;4.31358885017422;0;0;0;1.14185740007088;0
2;1;23;148;56;52;0.741955899866298;52;0.249980247812346;0.249970392789692;2.00810849992558;2.00811163685285;1;89;-88;2;-4;-2.68641114982578;0;0;0;0.741955899866298;0
2;1;24;127;15;13;2.62509720004164;68;0.249974918318912;0.249972907360643;2.00810447032563;2.00811292952858;1;41;-68;2;-2;-0.686411149825784;0;0;0;2.62509720004164;0
1;1;25;NaN;165;158;0.958261499879882;175;0.249983488814905;0;2.00810434063897;0;1;30;NaN;2;-7;-5.68641114982578;0;0;0;0.958261499879882;0
1;1;26;NaN;57;46;0.865928899962455;46;0.249982933048159;0;2.00810954463668;0;1;-72;NaN;2;-11;-9.68641114982578;0;0;0;0.865928899962455;0
2;1;27;19;26;22;1.33360399981029;50;0.249985003145412;0.249967158539221;2.00811031856574;2.00811606715433;1;31;-7;2;-4;-2.68641114982578;0;0;0;1.33360399981029;0
1;1;28;NaN;120;126;2.31661100010388;59;0.249982744455338;0;2.00810983707197;0;1;86;NaN;2;6;7.31358885017422;0;0;0;2.31661100010388;0
2;1;29;67;158;160;1.45039649982937;159;0.249976559076458;0.249979278072715;2.00811420753598;2.00810971832834;1;-38;89;2;2;3.31358885017422;0;0;0;1.45039649982937;0
2;1;30;178;130;137;0.775422000093386;120;0.249976407270879;0.249971996527165;2.00810925941914;2.00811384059489;1;28;48;2;7;8.31358885017422;0;0;0;0.775422000093386;0
2;2;31;107;75;70;1.8085715000052;128;0.249991281190887;0.249972281511873;2.00809842231683;2.0081053704489;2;55;32;2;-5;NaN;0;0;1;1.8085715000052;0
2;2;32;42;157;150;1.4657268000301;53;0.249983344227076;0.2499785781838;2.00810962612741;2.00810706266202;2;-82;65;2;-7;-5.68641114982578;0;0;0;1.4657268000301;0
2;2;33;70;141;147;1.30025990004651;177;0.249975758139044;0.249979181680828;2.00811576284468;2.00810995907523;2;16;-71;2;6;7.31358885017422;0;0;0;1.30025990004651;0
2;2;34;134;73;67;1.8749484999571;126;0.249977484811097;0.24996912968345;2.00811370369047;2.00811071856879;2;68;61;2;-6;-4.68641114982578;0;0;0;1.8749484999571;0
2;2;35;136;37;31;0.775397099787369;80;0.249978462932631;0.249977262923494;2.00810869247653;2.00810784450732;2;36;-81;2;-6;-4.68641114982578;0;0;0;0.775397099787369;0
2;2;36;4;82;81;1.17445349995978;8;0.24997860728763;0.249974800040945;2.00811074813828;2.00810724450275;2;-45;-78;2;-1;0.313588850174216;0;0;0;1.17445349995978;0
2;2;37;27;74;82;1.20093449996784;105;0.24996630451642;0.249972866615281;2.0081243137829;2.00811035302468;2;8;-47;2;8;9.31358885017422;0;0;0;1.20093449996784;0
2;2;38;145;160;164;1.29199209995568;89;0.249974711565301;0.24996322975494;2.00811664760113;2.00811244454235;2;-86;-15;2;4;5.31358885017422;0;0;0;1.29199209995568;0
1;2;39;NaN;124;131;1.80813699983992;116;0.249978039646521;0;2.00811126665212;0;2;36;NaN;2;7;8.31358885017422;0;0;0;1.80813699983992;0
1;2;40;NaN;107;104;1.97473760019056;152;0.24996959627606;0;2.00811690674163;0;2;17;NaN;2;-3;-1.68641114982578;0;0;0;1.97473760019056;0
1;2;41;NaN;74;67;2.06526149995625;151;0.249973752070218;0;2.00811490672641;0;2;33;NaN;2;-7;-5.68641114982578;0;0;0;2.06526149995625;0
2;2;42;122;36;20;1.13304629991762;130;0.249967355979607;0.249978048028424;2.00812263251282;2.00811407039873;2;38;86;2;-16;-14.6864111498258;0;0;0;1.13304629991762;0
2;2;43;169;87;74;1.22436480014585;111;0.249974403297529;0.249974859179929;2.00811222963966;2.00811571860686;2;-51;82;2;-13;-11.6864111498258;0;0;0;1.22436480014585;0
2;2;44;150;40;41;1.27472770004533;38;0.24997703009285;0.249972040997818;2.00811413303018;2.0081102848053;2;47;-70;2;1;2.31358885017422;0;0;0;1.27472770004533;0
1;2;45;NaN;51;17;1.77351990016177;95;0.249969747615978;0;2.00811706692912;0;2;-11;NaN;2;-34;NaN;0;1;0;NaN;0
1;2;46;NaN;23;13;1.85759830009192;59;0.249978955369443;0;2.00810920004733;0;2;28;NaN;2;-10;-8.68641114982578;0;0;0;1.85759830009192;0
1;2;47;NaN;31;14;1.54053670004942;102;0.249978510895744;0;2.00811078143306;0;2;-8;NaN;2;-17;-15.6864111498258;0;0;0;1.54053670004942;0
2;2;48;131;16;19;1.56688080006279;112;0.249970711302012;0.249972818652168;2.00811749603599;2.00810797023587;2;15;-65;2;3;4.31358885017422;0;0;0;1.56688080006279;0
1;2;49;NaN;5;9;1.39834480010904;99;0.249976748600602;0;2.00811042892747;0;2;11;NaN;2;4;5.31358885017422;0;0;0;1.39834480010904;0
1;2;50;NaN;37;23;0.874888899968937;68;0.249986314447597;0;2.00810872623697;0;2;-32;NaN;2;-14;-12.6864111498258;0;0;0;0.874888899968937;0
1;2;51;NaN;147;143;2.67376390006393;95;0.249981103464961;0;2.0081100333482;0;2;70;NaN;2;-4;-2.68641114982578;0;0;0;2.67376390006393;0
2;2;52;79;40;33;1.2069627000019;172;0.249980558874086;0.249964818591252;2.00811013672501;2.00811614422128;2;-73;39;2;-7;-5.68641114982578;0;0;0;1.2069627000019;0
1;2;53;NaN;116;124;1.96638639993034;34;0.249976858962327;0;2.0081108182203;0;2;-76;NaN;2;8;9.31358885017422;0;0;0;1.96638639993034;0
1;2;54;NaN;87;83;1.69898870005272;171;0.249975588871166;0;2.00811427808367;0;2;29;NaN;2;-4;-2.68641114982578;0;0;0;1.69898870005272;0
1;2;55;NaN;114;129;1.60796010005288;82;0.24997316650115;0;2.00811132229865;0;2;-27;NaN;2;15;16.3135888501742;0;0;0;1.60796010005288;0
1;2;56;NaN;26;24;1.57397420005873;172;0.249982736771926;0;2.00810951110907;0;2;88;NaN;2;-2;-0.686411149825784;0;0;0;1.57397420005873;0
2;2;57;50;26;19;1.54199689999223;173;0.249974658945575;0.249980059452355;2.00811133719981;2.00810820725746;2;0;24;2;-7;-5.68641114982578;0;0;0;1.54199689999223;0
1;2;58;NaN;105;113;1.17487320001237;120;0.249972199788317;0;2.00811591837555;0;2;-79;NaN;2;8;9.31358885017422;0;0;0;1.17487320001237;0
2;2;59;85;17;18;1.07481159991585;4;0.249989114701748;0.249965436756611;2.00809981115162;2.00811078888364;2;88;68;2;1;2.31358885017422;0;0;0;1.07481159991585;0
1;2;60;NaN;36;25;1.21645800000988;15;0.249975410988554;0;2.00810715532862;0;2;-19;NaN;2;-11;-9.68641114982578;0;0;0;1.21645800000988;0
2;3;61;122;27;18;2.10772190010175;115;0.249978318344802;0.249966625822708;2.00811639614403;2.00811700383201;3;9;-85;2;-9;NaN;0;0;1;2.10772190010175;0
2;3;62;29;151;147;1.31677999999374;39;0.249976558843628;0.249975037295371;2.0081147076562;2.00811125524342;3;56;58;2;-4;-2.68641114982578;0;0;0;1.31677999999374;0
2;3;63;99;93;106;1.08373329997994;65;0.249973818194121;0.249975500162691;2.00810633320361;2.00811032578349;3;58;6;2;13;14.3135888501742;0;0;0;1.08373329997994;0
1;3;64;NaN;11;6;1.60777919995598;89;0.249979180982336;0;2.00811628531665;0;3;82;NaN;2;-5;-3.68641114982578;0;0;0;1.60777919995598;0
2;3;65;55;165;169;1.33363709994592;139;0.249985466245562;0.24997519236058;2.00810662959702;2.00811209250242;3;26;70;2;4;5.31358885017422;0;0;0;1.33363709994592;0
2;3;66;75;145;161;1.37535669980571;57;0.249977629166096;0.249969544121996;2.00811407761648;2.0081079963129;3;20;-70;2;16;17.3135888501742;0;0;0;1.37535669980571;0
2;3;67;125;10;6;1.06598769989796;122;0.249979000072926;0.249976929742843;2.00811065547168;2.00811365921982;3;-45;-65;2;-4;-2.68641114982578;0;0;0;1.06598769989796;0
1;3;68;NaN;58;51;1.6075273999013;51;0.249978096224368;0;2.00810852553695;0;3;-48;NaN;2;-7;-5.68641114982578;0;0;0;1.6075273999013;0
1;3;69;NaN;34;18;1.93306379998103;171;0.249976296210662;0;2.00811091461219;0;3;24;NaN;2;-16;-14.6864111498258;0;0;0;1.93306379998103;0
1;3;70;NaN;164;166;2.37470240006223;94;0.249980114400387;0;2.00810843706131;0;3;50;NaN;2;2;3.31358885017422;0;0;0;2.37470240006223;0
1;3;71;NaN;5;12;1.78303990000859;20;0.249980977270752;0;2.00810263329186;0;3;-21;NaN;2;7;8.31358885017422;0;0;0;1.78303990000859;0
1;3;72;NaN;120;142;2.54896249994636;71;0.249985222239047;0;2.00811206689104;0;3;65;NaN;2;22;23.3135888501742;0;0;0;2.54896249994636;0
2;3;73;148;77;24;2.33532120008022;38;0.249977373983711;0.249963570386171;2.00811209948733;2.00810219021514;3;43;71;2;-53;NaN;0;1;0;NaN;0
2;3;74;23;112;124;2.01699590007775;89;0.24997411807999;0.249965266790241;2.00811452581547;2.00811345572583;3;-35;-89;2;12;13.3135888501742;1;0;0;2.01699590007775;0
2;3;75;159;63;47;1.2004566998221;83;0.24997986247763;0.249972040764987;2.00811075931415;2.00810861843638;3;49;-84;2;-16;-14.6864111498258;0;0;0;1.2004566998221;0
1;3;76;NaN;70;55;1.65816459991038;55;0.249957120744511;0;2.00811189250089;0;3;-7;NaN;2;-15;-13.6864111498258;0;0;0;1.65816459991038;0
1;3;77;NaN;60;57;1.681896999944;157;0.249974185368046;0;2.00811474025249;0;3;10;NaN;2;-3;-1.68641114982578;0;0;0;1.681896999944;0
2;3;78;156;89;75;1.60012089996599;121;0.249949192861095;0.249974992591888;2.008123266045;2.00810988154262;3;-29;67;2;-14;-12.6864111498258;0;0;0;1.60012089996599;0
1;3;79;NaN;128;145;1.76670449995436;179;0.24998016981408;0;2.00811339658685;0;3;-39;NaN;2;17;18.3135888501742;0;0;0;1.76670449995436;0
2;3;80;78;138;146;1.05785500002094;160;0.249980496009812;0.249973936937749;2.00811299262568;2.00810769223608;3;-10;-60;2;8;9.31358885017422;0;0;0;1.05785500002094;0
1;3;81;NaN;17;32;3.21538410009816;147;0.249969144817442;0;2.00812069582753;0;3;-59;NaN;2;15;16.3135888501742;0;0;0;3.21538410009816;0
2;3;82;88;56;49;0.732926500029862;42;0.249975063372403;0.249972770456225;2.00812001433223;2.00811201473698;3;-39;32;2;-7;-5.68641114982578;0;0;0;0.732926500029862;0
1;3;83;NaN;98;120;1.24173609982245;122;0.249978822655976;0;2.00811107386835;0;3;-42;NaN;2;22;23.3135888501742;0;0;0;1.24173609982245;0
2;3;84;61;86;97;1.55029929988086;26;0.249981725588441;0.249980340711772;2.00811256654561;2.00810887780972;3;12;-25;2;11;12.3135888501742;0;0;0;1.55029929988086;0
2;3;85;152;125;121;1.81694649998099;145;0.249985003378242;0.24996356270276;2.00810459651984;2.00811720755883;3;-39;27;2;-4;-2.68641114982578;0;0;0;1.81694649998099;0
1;3;86;NaN;58;44;1.49156780005433;20;0.249976514838636;0;2.00810466287658;0;3;67;NaN;2;-14;-12.6864111498258;0;0;0;1.49156780005433;0
2;3;87;95;66;54;0.817016300046816;15;0.249975181184709;0.249973814701661;2.00810979260132;2.00810582214035;3;-8;29;2;-12;-10.6864111498258;0;0;0;0.817016300046816;0
1;3;88;NaN;178;172;1.49032410001382;40;0.249963268870488;0;2.00811392976902;0;3;68;NaN;2;-6;-4.68641114982578;0;0;0;1.49032410001382;0
1;3;89;NaN;47;44;1.60721200006083;118;0.249970692908391;0;2.00811333279125;0;3;-49;NaN;2;-3;-1.68641114982578;0;0;0;1.60721200006083;0
1;3;90;NaN;12;11;1.15759389987215;30;0.249982103705406;0;2.0081098144874;0;3;35;NaN;2;-1;0.313588850174216;0;0;0;1.15759389987215;0
1;4;91;NaN;52;37;0.916520999977365;47;0.249971866840497;0;2.00811556284316;0;4;-40;NaN;2;-15;NaN;0;0;1;0.916520999977365;0
1;4;92;NaN;171;173;1.45825690007769;143;0.249981069937348;0;2.00810390012339;0;4;61;NaN;2;2;3.31358885017422;0;0;0;1.45825690007769;0
1;4;93;NaN;130;128;1.408151099924;72;0.24997580354102;0;2.00811633327976;0;4;41;NaN;2;-2;-0.686411149825784;0;0;0;1.408151099924;0
1;4;94;NaN;146;160;1.02491779997945;105;0.249977873871103;0;2.00811264826916;0;4;-16;NaN;2;14;15.3135888501742;0;0;0;1.02491779997945;0
2;4;95;143;116;119;1.62519369996153;177;0.24998247413896;0.249976303195581;2.00810664799064;2.00811505550519;4;30;27;2;3;4.31358885017422;0;0;0;1.62519369996153;0
1;4;96;NaN;90;101;2.274868800072;72;0.249973629368469;0;2.00811580754817;0;4;26;NaN;2;11;12.3135888501742;0;0;0;2.274868800072;0
2;4;97;114;59;39;1.45865510008298;175;0.249979385873303;0.249977074097842;2.00811823713593;2.00810273713432;4;31;55;2;-20;-18.6864111498258;0;0;0;1.45865510008298;0
2;4;98;138;14;14;1.53244420001283;124;0.249980388907716;0.249968644231558;2.00810541096143;2.00811211857945;4;45;-56;2;0;1.31358885017422;0;0;0;1.53244420001283;0
1;4;99;NaN;1;169;2.1915311999619;36;0.249980603344738;0;2.00811155186966;0;4;13;NaN;2;-12;-10.6864111498258;0;0;0;2.1915311999619;0
1;4;100;NaN;32;20;1.09036400006153;107;0.24997549969703;0;2.00811139983125;0;4;-31;NaN;2;-12;-10.6864111498258;0;0;0;1.09036400006153;0
2;4;101;51;90;99;1.71685989992693;155;0.249977688537911;0.249980818480253;2.00810605939478;2.00810458161868;4;-58;-39;2;9;10.3135888501742;0;0;0;1.71685989992693;0
2;4;102;53;87;93;1.88351610000245;38;0.249976037070155;0.249979188898578;2.00811202614568;2.00811077049002;4;3;-34;2;6;7.31358885017422;0;0;0;1.88351610000245;0
2;4;103;50;171;175;1.64201699988917;140;0.24997845897451;0.249974536942318;2.00810579257086;2.00811407412402;4;-84;59;2;4;5.31358885017422;0;0;0;1.64201699988917;0
2;4;104;78;157;168;1.14185419981368;140;0.249982547946274;0.249970111064613;2.00811513350345;2.00811723689549;4;14;-79;2;11;12.3135888501742;0;0;0;1.14185419981368;0
2;4;105;180;141;156;1.05864519998431;175;0.249974363017827;0.249974018428475;2.00811032182537;2.00810675183311;4;16;39;2;15;16.3135888501742;0;0;0;1.05864519998431;0
1;4;106;NaN;175;177;1.28222849988379;105;0.249975824728608;0;2.00810948130675;0;4;-34;NaN;2;2;3.31358885017422;0;0;0;1.28222849988379;0
2;4;107;4;24;14;1.64189799991436;111;0.249977785395458;0.249969433294609;2.00811687367968;2.00811357796192;4;-29;-20;2;-10;-8.68641114982578;0;0;0;1.64189799991436;0
1;4;108;NaN;72;67;1.16663719993085;86;0.249973810743541;0;2.00811175932176;0;4;-48;NaN;2;-5;-3.68641114982578;0;0;0;1.16663719993085;0
1;4;109;NaN;97;140;1.40829940000549;174;0.249977881088853;0;2.00812533730641;0;4;-25;NaN;2;43;NaN;0;1;0;NaN;0
1;4;110;NaN;1;176;0.899310800014064;55;0.249975840561092;0;2.0081098517403;0;4;-84;NaN;2;-5;-3.68641114982578;0;0;0;0.899310800014064;0
1;4;111;NaN;64;46;0.92486279993318;53;0.249981122324243;0;2.0081043811515;0;4;-63;NaN;2;-18;-16.6864111498258;0;0;0;0.92486279993318;0
2;4;112;10;165;162;0.658610200043768;162;0.249980958877131;0.249977474100888;2.00811402243562;2.00810388894752;4;79;25;2;-3;-1.68641114982578;0;0;0;0.658610200043768;0
2;4;113;88;167;162;1.36692610010505;130;0.249986692331731;0.24996679648757;2.00811131880619;2.00811267388053;4;-2;-79;2;-5;-3.68641114982578;0;0;0;1.36692610010505;0
2;4;114;109;64;28;1.05211209994741;13;0.249979436863214;0.249974655685946;2.00810873298906;1.99976473068818;4;-77;45;2;-36;NaN;0;1;0;NaN;0
1;4;115;NaN;7;8;1.04985409998335;60;0.249977077357471;0;2.00811237399466;0;4;57;NaN;2;1;2.31358885017422;0;0;0;1.04985409998335;0
2;4;116;123;93;99;1.32435929984786;67;0.249979044077918;0.249976296443492;2.00810689269565;2.00811065174639;4;-86;30;2;6;7.31358885017422;0;0;0;1.32435929984786;0
1;4;117;NaN;43;17;2.19888129993342;94;0.249987455317751;0;2.00810590363108;0;4;50;NaN;2;-26;-24.6864111498258;0;0;0;2.19888129993342;0
2;4;118;10;98;104;1.58211060008034;87;0.249984566355124;0.249974322272465;2.00810564425774;2.0081113926135;4;-55;-88;2;6;7.31358885017422;0;0;0;1.58211060008034;0
1;4;119;NaN;78;74;1.83323289989494;94;0.24998404760845;0;2.00810802960768;0;4;20;NaN;2;-4;-2.68641114982578;0;0;0;1.83323289989494;0
2;4;120;75;9;5;1.56694220006466;142;0.24998604808934;0.249970859382302;2.00810809992254;2.00810562213883;4;69;66;2;-4;-2.68641114982578;0;0;0;1.56694220006466;0
2;5;121;53;172;168;0.98354719998315;151;0.249980248045176;0.249968799995258;2.00811288133264;2.0081125034485;5;17;61;2;-4;NaN;0;0;1;0.98354719998315;0
1;5;122;NaN;5;11;1.74047469999641;20;0.249976207269356;0;2.00811163336039;0;5;-13;NaN;2;6;7.31358885017422;0;0;0;1.74047469999641;0
1;5;123;NaN;47;22;1.5404964000918;142;0.249972742982209;0;2.00810479256324;0;5;-42;NaN;2;-25;-23.6864111498258;0;0;0;1.5404964000918;0
2;5;124;93;64;49;1.1919823999051;68;0.249966548057273;0.249979092506692;2.00811944087036;2.00811351509765;5;-17;29;2;-15;-13.6864111498258;0;0;0;1.1919823999051;0
1;5;125;NaN;145;140;1.06550149992108;78;0.249977848026901;0;2.00811140006408;0;5;-81;NaN;2;-5;-3.68641114982578;0;0;0;1.06550149992108;0
2;5;126;106;15;14;2.2418390000239;161;0.249979303684086;0.249972844263539;2.00810557021759;2.00810745940544;5;-50;-89;2;-1;0.313588850174216;0;0;0;2.2418390000239;0
1;5;127;NaN;57;48;1.86642690002918;105;0.24997394089587;0;2.00811370299198;0;5;-42;NaN;2;-9;-7.68641114982578;0;0;0;1.86642690002918;0
2;5;128;139;164;169;1.25777520006523;124;0.249968381831422;0.249974763020873;2.00811936962418;2.00811335560866;5;73;-25;2;5;6.31358885017422;0;0;0;1.25777520006523;0
1;5;129;NaN;88;96;1.99845699989237;141;0.249971926910803;0;2.00811691000126;0;5;76;NaN;2;8;9.31358885017422;0;0;0;1.99845699989237;0
2;5;130;145;174;174;1.28354380000383;126;0.249984010821208;0.249977111117914;2.00811112229712;2.00810931110755;5;-86;-29;2;0;1.31358885017422;0;0;0;1.28354380000383;0
1;5;131;NaN;86;95;2.66640400001779;136;0.249976488761604;0;2.00811280729249;0;5;88;NaN;2;9;10.3135888501742;0;0;0;2.66640400001779;0
2;5;132;85;22;23;1.26707910001278;142;0.249968400457874;0.249970077769831;2.00812366604805;2.00811667041853;5;64;63;2;1;2.31358885017422;0;0;0;1.26707910001278;0
2;5;133;9;105;118;1.36575290001929;179;0.249971592798829;0.249975407496095;2.00811235513538;2.00811691116542;5;-83;84;2;13;14.3135888501742;0;0;0;1.36575290001929;0
2;5;134;24;178;165;1.55862149992026;36;0.249970396282151;0.249976207269356;2.0081182771828;2.00810402235948;5;-73;26;2;-13;-11.6864111498258;0;0;0;1.55862149992026;0
1;5;135;NaN;105;119;1.98215070017613;73;0.249975307146087;0;2.00811210018583;0;5;73;NaN;2;14;15.3135888501742;0;0;0;1.98215070017613;0
1;5;136;NaN;40;43;1.92386469990015;105;0.249977743951604;0;2.00811578892171;0;5;65;NaN;2;3;4.31358885017422;0;0;0;1.92386469990015;0
2;5;137;33;129;127;1.06717190006748;172;0.249964696122333;0.249973548110574;2.00810665171593;2.00811261101626;5;-89;84;2;-2;-0.686411149825784;0;0;0;1.06717190006748;0
1;5;138;NaN;171;163;1.85716110002249;69;0.24998233676888;0;2.00810911110602;0;5;-42;NaN;2;-8;-6.68641114982578;0;0;0;1.85716110002249;0
1;5;139;NaN;37;14;1.09153679991141;46;0.249958065338433;0;2.00810800376348;0;5;-46;NaN;2;-23;-21.6864111498258;0;0;0;1.09153679991141;0
1;5;140;NaN;130;136;1.85713950009085;17;0.249976466409862;0;2.00810884428211;0;5;87;NaN;2;6;7.31358885017422;0;0;0;1.85713950009085;0
1;5;141;NaN;31;28;1.34096609987319;88;0.249997029546648;0;2.00809456664138;0;5;-81;NaN;2;-3;-1.68641114982578;0;0;0;1.34096609987319;0
2;5;142;149;30;22;1.13236190006137;162;0.249973473837599;0.249969870550558;2.00811234069988;2.00811384804547;5;1;-61;2;-8;-6.68641114982578;0;0;0;1.13236190006137;0
1;5;143;NaN;93;97;1.29065370000899;51;0.249981655506417;0;2.00810977770016;0;5;-63;NaN;2;4;5.31358885017422;0;0;0;1.29065370000899;0
2;5;144;57;22;18;1.00032420014031;163;0.249980207299814;0.249971218639985;2.00810985919088;2.00811359263025;5;71;35;2;-4;-2.68641114982578;0;0;0;1.00032420014031;0
2;5;145;42;138;153;1.72544780001044;54;0.249969818396494;0.249975040555;2.00811542617157;2.00810636323877;5;64;84;2;15;16.3135888501742;0;0;0;1.72544780001044;0
1;5;146;NaN;94;99;1.3822271998506;95;0.249971137847751;0;2.00811972538941;0;5;44;NaN;2;5;6.31358885017422;0;0;0;1.3822271998506;0
1;5;147;NaN;65;47;0.97390879993327;4;0.249974009813741;0;2.00811484805308;0;5;29;NaN;2;-18;-16.6864111498258;0;0;0;0.97390879993327;0
2;5;148;57;20;9;2.14204460009933;18;0.249971221899614;0.249974788865075;2.00811502966098;2.00809950032271;5;45;37;2;-11;-9.68641114982578;0;0;0;2.14204460009933;0
2;5;149;143;1;179;1.17446139990352;127;0.249973229831085;0.24997812951915;2.00811965507455;2.00811343360692;5;19;-38;2;-2;-0.686411149825784;0;0;0;1.17446139990352;0
2;5;150;100;83;63;0.883688500151038;82;0.249980581225827;0.249979877844453;2.00810911483131;2.00810619979165;5;-82;17;2;-20;-18.6864111498258;0;0;0;0.883688500151038;0
1;6;151;NaN;134;154;1.8322477999609;0;0.249987010844052;0;2.00810754066333;0;6;-51;NaN;2;20;NaN;0;0;1;1.8322477999609;0
1;6;152;NaN;127;131;0.9498905998189;66;0.249969085212797;0;2.00811795145273;0;6;7;NaN;2;4;5.31358885017422;0;0;0;0.9498905998189;0
1;6;153;NaN;52;50;0.991572800092399;36;0.249972659628838;0;2.00811447366141;0;6;75;NaN;2;-2;-0.686411149825784;0;0;0;0.991572800092399;0
1;6;154;NaN;52;29;1.23265499994159;157;0.249982599634677;0;2.00811205920763;0;6;0;NaN;2;-23;-21.6864111498258;0;0;0;1.23265499994159;0
2;6;155;66;13;9;1.25872829998843;24;0.249966136878356;0.249976855702698;2.00811625178903;2.00810998491943;6;39;53;2;-4;-2.68641114982578;0;0;0;1.25872829998843;0
2;6;156;146;33;25;1.33329010009766;47;0.249981855275109;0.249973737169057;2.00811451859772;2.00810921867378;6;-20;-67;2;-8;-6.68641114982578;0;0;0;1.33329010009766;0
2;6;157;112;47;44;1.74899649992585;147;0.249971093144268;0.249969577649608;2.00811783294193;2.0081140443217;6;-14;65;2;-3;-1.68641114982578;0;0;0;1.74899649992585;0
1;6;158;NaN;153;128;1.40835500019602;126;0.249975152080879;0;2.00811255141161;0;6;74;NaN;2;-25;-23.6864111498258;0;0;0;1.40835500019602;0
2;6;159;8;179;168;1.04153780010529;25;0.249979922315106;0.249983677873388;2.00811210344546;2.00809932965785;6;-26;9;2;-11;-9.68641114982578;0;0;0;1.04153780010529;0
2;6;160;129;135;151;1.80863570002839;87;0.249982166336849;0.249973103636876;2.0081077076029;2.00810761493631;6;44;-6;2;16;17.3135888501742;0;0;0;1.80863570002839;0
1;6;161;NaN;177;167;1.14992909994908;176;0.24998248857446;0;2.00810840749182;0;6;-42;NaN;2;-10;-8.68641114982578;0;0;0;1.14992909994908;0
1;6;162;NaN;121;125;0.932356200180948;146;0.249972288496792;0;2.00811299635097;0;6;56;NaN;2;4;5.31358885017422;0;0;0;0.932356200180948;0
2;6;163;34;120;118;1.24901899998076;18;0.249974103877321;0.249972644262016;2.00811279984191;2.00811138539575;6;1;-86;2;-2;-0.686411149825784;0;0;0;1.24901899998076;0
2;6;164;82;100;116;0.958559700055048;126;0.249981799628586;0.249972011195496;2.00810626288876;2.00810607033782;6;20;-18;2;16;17.3135888501742;0;0;0;0.958559700055048;0
2;6;165;156;11;6;0.56693709990941;6;0.24998589605093;0.249974381411448;2.00810571876355;2.00811015930958;6;89;-35;2;-5;-3.68641114982578;0;0;0;0.56693709990941;0
2;6;166;56;122;123;0.874721999978647;123;0.249975262908265;0.249968081479892;2.00810658885166;2.00811475911178;6;69;-66;2;1;2.31358885017422;0;0;0;0.874721999978647;0
2;6;167;155;106;122;1.22525410004891;4;0.249972603516653;0.249968933174387;2.00811349600554;2.00811512232758;6;16;49;2;16;17.3135888501742;0;0;0;1.22525410004891;0
1;6;168;NaN;76;73;1.46530660009012;3;0.249986559152603;0;2.00810516648926;0;6;30;NaN;2;-3;-1.68641114982578;0;0;0;1.46530660009012;0
2;6;169;172;23;39;1.15823699999601;12;0.249979881336913;0.249977433122694;2.00811146246269;2.0081050703302;6;53;-31;2;16;17.3135888501742;0;0;0;1.15823699999601;0
1;6;170;NaN;82;58;0.85838899994269;72;0.249985629227012;0;2.00810748548247;0;6;-59;NaN;2;-24;-22.6864111498258;0;0;0;0.85838899994269;0
1;6;171;NaN;45;37;1.51538659981452;143;0.249986303504556;0;2.00810637394898;0;6;37;NaN;2;-8;-6.68641114982578;0;0;0;1.51538659981452;0
2;6;172;7;39;45;1.01677479990758;96;0.249976032879204;0.2499782925006;2.00811460381374;2.00810519605875;6;6;-32;2;6;7.31358885017422;0;0;0;1.01677479990758;0
2;6;173;141;38;56;1.44193869992159;178;0.249978255247697;0.249974181409925;2.00810664077289;2.00810845941305;6;1;-77;2;18;19.3135888501742;0;0;0;1.44193869992159;0
2;6;174;59;115;132;1.40022790012881;85;0.249974111095071;0.249971159268171;2.00811427715234;2.00810709246434;6;-77;-56;2;17;18.3135888501742;0;0;0;1.40022790012881;0
1;6;175;NaN;84;66;1.04142590006813;150;0.249970580916852;0;2.00811525550671;0;6;31;NaN;2;-18;-16.6864111498258;0;0;0;1.04142590006813;0
1;6;176;NaN;97;108;0.876082999864593;122;0.249980466207489;0;2.00810290803201;0;6;-13;NaN;2;11;12.3135888501742;0;0;0;0.876082999864593;0
1;6;177;NaN;155;161;1.12434180011041;100;0.249985466478392;0;2.00811220752075;0;6;-58;NaN;2;6;7.31358885017422;0;0;0;1.12434180011041;0
2;6;178;121;161;159;1.12527210009284;69;0.24997268919833;0.249972059391439;2.00812159571797;2.00810932228342;6;-6;-40;2;-2;-0.686411149825784;0;0;0;1.12527210009284;0
1;6;179;NaN;52;39;0.766594500048086;30;0.249975726008415;0;2.00812124763615;0;6;-71;NaN;2;-13;-11.6864111498258;0;0;0;0.766594500048086;0
1;6;180;NaN;52;39;0.957669499795884;96;0.249971351586282;0;2.00811732583679;0;6;0;NaN;2;-13;-11.6864111498258;0;0;0;0.957669499795884;0
1;7;181;NaN;156;156;1.8414396001026;174;0.249976384919137;0;2.00811071111821;0;7;76;NaN;2;0;NaN;0;0;1;1.8414396001026;0
1;7;182;NaN;177;164;1.18239250010811;68;0.24999240739271;0;2.00810030731373;0;7;-21;NaN;2;-13;-11.6864111498258;0;0;0;1.18239250010811;0
2;7;183;168;101;107;1.64194540004246;164;0.249974593520164;0.249970762990415;2.00811861432157;2.00811038166285;7;76;67;2;6;7.31358885017422;0;0;0;1.64194540004246;0
1;7;184;NaN;24;20;1.26661910000257;138;0.249986022012308;0;2.00810604845174;0;7;77;NaN;2;-4;-2.68641114982578;0;0;0;1.26661910000257;0
1;7;185;NaN;110;119;1.11567529989406;47;0.24998015537858;0;2.00810863706283;0;7;-86;NaN;2;9;10.3135888501742;0;0;0;1.11567529989406;0
2;7;186;52;43;43;1.06689519993961;20;0.249984766356647;0.249971581390128;2.00811011856422;2.00816422235221;7;67;9;2;0;1.31358885017422;0;0;0;1.06689519993961;0
2;7;187;179;48;33;0.850263400003314;17;0.249985514674336;0.249974440783262;2.00810612970963;2.00811149994843;7;-5;-49;2;-15;-13.6864111498258;0;0;0;0.850263400003314;0
2;7;188;122;134;149;0.908703600056469;18;0.249978933250532;0.249972159042954;2.00811539613642;2.00810881122015;7;-86;-12;2;15;16.3135888501742;0;0;0;0.908703600056469;0
2;7;189;10;14;10;1.1586823000107;52;0.249981599627063;0.249970540869981;2.0081087150611;2.00811724434607;7;-60;-4;2;-4;-2.68641114982578;0;0;0;1.1586823000107;0
1;7;190;NaN;159;143;1.4164517999161;88;0.24997751833871;0;2.00811300007626;0;7;35;NaN;2;-16;-14.6864111498258;0;0;0;1.4164517999161;0
2;7;191;85;105;104;1.54196049994789;6;0.249972150428221;0.249978059204295;2.00811127037741;2.00811070739292;7;54;-20;2;-1;0.313588850174216;0;0;0;1.54196049994789;0
1;7;192;NaN;52;47;1.06542590004392;137;0.2499782780651;0;2.00811471417546;0;7;53;NaN;2;-5;-3.68641114982578;0;0;0;1.06542590004392;0
2;7;193;1;144;136;1.00029539992101;86;0.24997689970769;0.249974462902173;2.00811518868431;2.00811055558734;7;88;37;2;-8;-6.68641114982578;0;0;0;1.00029539992101;0
2;7;194;173;33;17;1.12527550011873;106;0.249971251701936;0.249974833568558;2.0081118887756;2.00810407032259;7;-69;-40;2;-16;-14.6864111498258;0;0;0;1.12527550011873;0
1;7;195;NaN;86;96;1.14985899999738;70;0.249985348433256;0;2.0081114594359;0;7;-53;NaN;2;10;11.3135888501742;0;0;0;1.14985899999738;0
1;7;196;NaN;97;110;1.26654970017262;67;0.249980782158673;0;2.00811389274895;0;7;-11;NaN;2;13;14.3135888501742;0;0;0;1.26654970017262;0
1;7;197;NaN;170;169;1.49979209993035;61;0.249975468963385;0;2.00811195932329;0;7;-73;NaN;2;-1;0.313588850174216;0;0;0;1.49979209993035;0
1;7;198;NaN;38;24;2.24055980006233;98;0.249978440348059;0;2.00811365945265;0;7;-48;NaN;2;-14;-12.6864111498258;0;0;0;2.24055980006233;0
1;7;199;NaN;95;101;1.99033490009606;23;0.249973432859406;0;2.00811009993777;0;7;-57;NaN;2;6;7.31358885017422;0;0;0;1.99033490009606;0
1;7;200;NaN;153;160;1.03317350009456;84;0.249974644044414;0;2.00811382592656;0;7;-58;NaN;2;7;8.31358885017422;0;0;0;1.03317350009456;0
2;7;201;159;52;52;1.05858299997635;24;0.24997693579644;0.249976148130372;2.00811164430343;2.00811388134025;7;-79;-73;2;0;1.31358885017422;0;0;0;1.05858299997635;0
2;7;202;113;84;58;1.14199649984948;14;0.249975055456161;0.249974270351231;2.008117062971;2.00811061868444;7;-32;29;2;-26;-24.6864111498258;0;0;0;1.14199649984948;0
1;7;203;NaN;34;13;1.40827809995972;83;0.249979151878506;0;2.00811499240808;0;7;50;NaN;2;-21;-19.6864111498258;0;0;0;1.40827809995972;0
2;7;204;177;141;143;1.04198099998757;126;0.249980973778293;0.249971118755639;2.0081059592776;2.00811081845313;7;73;36;2;2;3.31358885017422;0;0;0;1.04198099998757;0
1;7;205;NaN;62;44;0.749896599911153;44;0.24996873177588;0;2.00810749642551;0;7;79;NaN;2;-18;-16.6864111498258;0;0;0;0.749896599911153;0
1;7;206;NaN;21;7;1.16666049999185;165;0.249979999614879;0;2.00811123335734;0;7;41;NaN;2;-14;-12.6864111498258;0;0;0;1.16666049999185;0
2;7;207;145;107;122;1.40867929998785;28;0.249981358880177;0.249968344578519;2.00810385937802;2.00811445573345;7;-86;38;2;15;16.3135888501742;0;0;0;1.40867929998785;0
2;7;208;171;74;72;1.39194069989026;149;0.249986496055499;0.249975011218339;2.00810830760747;2.00811330741271;7;33;-83;2;-2;-0.686411149825784;0;0;0;1.39194069989026;0
2;7;209;28;10;179;4.04163659992628;51;0.249966019066051;0.249971818644553;2.0081273179967;2.00811231113039;7;64;18;2;-11;-9.68641114982578;0;0;0;4.04163659992628;0
2;7;210;71;86;90;1.05027069989592;107;0.249975920887664;0.249972129473463;2.00811171834357;2.00810662237927;7;-76;-15;2;4;5.31358885017422;0;0;0;1.05027069989592;0
2;8;211;163;134;125;1.30034670000896;52;0.249965904047713;0.249967133393511;2.0081172066275;2.00811451836489;8;-48;29;2;-9;NaN;0;0;1;1.30034670000896;0
1;8;212;NaN;133;150;1.31646450003609;109;0.249976169783622;0;2.00811158167198;0;8;1;NaN;2;17;18.3135888501742;0;0;0;1.31646450003609;0
1;8;213;NaN;60;55;0.824925699969754;66;0.249980692286044;0;2.00811732956208;0;8;73;NaN;2;-5;-3.68641114982578;0;0;0;0.824925699969754;0
2;8;214;28;160;165;1.50812510005198;26;0.249986966373399;0.249975885031745;2.00811017025262;2.00811025570147;8;80;48;2;5;6.31358885017422;0;0;0;1.50812510005198;0
2;8;215;168;9;7;1.1171222999692;38;0.249979188665748;0.249970100121573;2.00810915161856;2.00811202614568;8;-29;-21;2;-2;-0.686411149825784;0;0;0;1.1171222999692;0
2;8;216;154;69;72;1.60024950001389;31;0.24997720727697;0.249972173944116;2.00810829992406;2.00810788897797;8;-60;85;2;3;4.31358885017422;0;0;0;1.60024950001389;0
1;8;217;NaN;161;153;1.11601029988378;161;0.249979303451255;0;2.00811226689257;0;8;88;NaN;2;-8;-6.68641114982578;0;0;0;1.11601029988378;0
2;8;218;117;142;151;1.78290840005502;98;0.249977996107191;0.249972870573401;2.00811232975684;2.00810515903868;8;19;-25;2;9;10.3135888501742;0;0;0;1.78290840005502;0
1;8;219;NaN;47;31;2.28151740017347;129;0.249972392804921;0;2.00811536610126;0;8;-85;NaN;2;-16;-14.6864111498258;0;0;0;2.28151740017347;0
1;8;220;NaN;84;97;1.88258109986782;41;0.249978051520884;0;2.00811098888516;0;8;-37;NaN;2;13;14.3135888501742;0;0;0;1.88258109986782;0
1;8;221;NaN;78;75;1.30834969994612;124;0.249975651502609;0;2.0081109853927;0;8;6;NaN;2;-3;-1.68641114982578;0;0;0;1.30834969994612;0
2;8;222;1;107;110;1.3252326999791;84;0.249982403591275;0.249972314573824;2.00810555531643;2.00810971134342;8;-29;74;2;3;4.31358885017422;0;0;0;1.3252326999791;0
1;8;223;NaN;71;66;1.10825200006366;53;0.249977940693498;0;2.00810741470195;0;8;36;NaN;2;-5;-3.68641114982578;0;0;0;1.10825200006366;0
1;8;224;NaN;118;127;0.90019640000537;134;0.249975358368829;0;2.0081098889932;0;8;-47;NaN;2;9;10.3135888501742;0;0;0;0.90019640000537;0
2;8;225;100;88;86;1.35764970001765;178;0.249983277637511;0.249978048261255;2.00810660398565;2.00810951879248;8;30;12;2;-2;-0.686411149825784;0;0;0;1.35764970001765;0
1;8;226;NaN;121;122;1.29992830008268;2;0.249973924830556;0;2.00811334396712;0;8;-33;NaN;2;1;2.31358885017422;0;0;0;1.29992830008268;0
1;8;227;NaN;77;75;0.949333499884233;59;0.249981377506629;0;2.00810571853071;0;8;44;NaN;2;-2;-0.686411149825784;0;0;0;0.949333499884233;0
1;8;228;NaN;24;9;0.966653300216421;17;0.249973392812535;0;2.00812082528137;0;8;53;NaN;2;-15;-13.6864111498258;0;0;0;0.966653300216421;0
1;8;229;NaN;24;13;1.09994690003805;0;0.249982537003234;0;2.00810632202774;0;8;0;NaN;2;-11;-9.68641114982578;0;0;0;1.09994690003805;0
1;8;230;NaN;22;16;1.32398570002988;108;0.249984555412084;0;2.00811357772909;0;8;2;NaN;2;-6;-4.68641114982578;0;0;0;1.32398570002988;0
2;8;231;57;134;151;0.874759900150821;173;0.249974657781422;0.24997610761784;2.00811552722007;2.00810657767579;8;68;-77;2;17;18.3135888501742;0;0;0;0.874759900150821;0
2;8;232;118;55;44;1.15854780003428;33;0.249972722493112;0.249976170482114;2.00811787717976;2.00810724799521;8;79;63;2;-11;-9.68641114982578;0;0;0;1.15854780003428;0
2;8;233;164;171;169;1.34203960001469;43;0.249978970037773;0.249972033314407;2.00810855184682;2.00811301497743;8;64;-7;2;-2;-0.686411149825784;0;0;0;1.34203960001469;0
2;8;234;125;97;104;1.19942640000954;8;0.249971688725054;0.249973648460582;2.0081129479222;2.00811038119718;8;74;28;2;7;8.31358885017422;0;0;0;1.19942640000954;0
2;8;235;44;100;105;1.65846460009925;150;0.249953967286274;0.249968470307067;2.00811806228012;2.00811072229408;8;-3;-56;2;5;6.31358885017422;0;0;0;1.65846460009925;0
2;8;236;137;179;171;1.46702979994006;90;0.249984574038535;0.249979966785759;2.00810953299515;2.00810965918936;8;-79;-42;2;-8;-6.68641114982578;0;0;0;1.46702979994006;0
1;8;237;NaN;127;135;1.02498669992201;123;0.24998109228909;0;2.00810744077899;0;8;52;NaN;2;8;9.31358885017422;0;0;0;1.02498669992201;0
2;8;238;1;38;22;1.00012340000831;74;0.249981029424816;0.249980322318152;2.00811382965185;2.00810515927151;8;89;-37;2;-16;-14.6864111498258;0;0;0;1.00012340000831;0
1;8;239;NaN;42;17;0.999939600005746;4;0.249983970075846;0;2.00810942589305;0;8;-4;NaN;2;-25;-23.6864111498258;0;0;0;0.999939600005746;0
2;8;240;172;94;102;1.24131640000269;2;0.249969948548824;0.249963063048199;2.00811814749613;2.00811461103149;8;-52;78;2;8;9.31358885017422;0;0;0;1.24131640000269;0
2;9;241;129;116;120;1.21684210002422;82;0.249986733309925;0.24997548526153;2.00810345518403;2.00810355157591;9;-22;13;2;4;NaN;0;0;1;1.21684210002422;0
2;9;242;153;176;170;1.49193709995598;179;0.249980966560543;0.249974370468408;2.00810766289942;2.00810784799978;9;-60;-23;2;-6;-4.68641114982578;0;0;0;1.49193709995598;0
2;9;243;26;86;83;1.82527039991692;148;0.249978114617988;0.249970181612298;2.0081086223945;2.00811498891562;9;90;-60;2;-3;-1.68641114982578;0;0;0;1.82527039991692;0
1;9;244;NaN;148;170;1.6988977000583;112;0.249970729462802;0;2.00811190740205;0;9;-62;NaN;2;22;23.3135888501742;0;0;0;1.6988977000583;0
2;9;245;101;134;144;1.07439109985717;26;0.24998280312866;0.249971040757373;2.00811027013697;2.00810889992863;9;14;-33;2;10;11.3135888501742;0;0;0;1.07439109985717;0
2;9;246;26;78;76;1.65033689979464;128;0.249980944208801;0.249973370227963;2.00811058143154;2.00811158888973;9;56;-52;2;-2;-0.686411149825784;0;0;0;1.65033689979464;0
2;9;247;161;7;33;1.88267870014533;75;0.249974421691149;0.249968940857798;2.00811514467932;2.00811644457281;9;71;-26;2;26;27.3135888501742;0;0;0;1.88267870014533;0
1;9;248;NaN;95;112;1.05850729998201;134;0.249972600024194;0;2.00811486272141;0;9;-88;NaN;2;17;18.3135888501742;0;0;0;1.05850729998201;0
1;9;249;NaN;39;28;1.16528610000387;154;0.249978210777044;0;2.00810963683762;0;9;56;NaN;2;-11;-9.68641114982578;0;0;0;1.16528610000387;0
1;9;250;NaN;165;156;1.25810740003362;29;0.24996779859066;0;2.00811895192601;0;9;54;NaN;2;-9;-7.68641114982578;0;0;0;1.25810740003362;0
2;9;251;106;102;105;1.36570169986226;91;0.249980481108651;0.249976618681103;2.00810975930654;2.00810331478715;9;63;4;2;3;4.31358885017422;0;0;0;1.36570169986226;0
2;9;252;109;162;164;1.36676169978455;99;0.249981858767569;0.249968100106344;2.00810126308352;2.00811284407973;9;-60;-53;2;2;3.31358885017422;0;0;0;1.36676169978455;0
2;9;253;47;125;137;1.49104170012288;28;0.249991276534274;0.249969881493598;2.00811465200968;2.00811538496055;9;37;-78;2;12;13.3135888501742;0;0;0;1.49104170012288;0
2;9;254;62;151;148;0.783689100062475;174;0.249977077357471;0.249978918582201;2.00811053346843;2.00811076303944;9;-26;-89;2;-3;-1.68641114982578;0;0;0;0.783689100062475;0
1;9;255;NaN;45;36;1.04146190010943;26;0.249980907188728;0;2.00810692226514;0;9;-74;NaN;2;-9;-7.68641114982578;0;0;0;1.04146190010943;0
1;9;256;NaN;59;52;1.52366399997845;176;0.24996771896258;0;2.00811838451773;0;9;-14;NaN;2;-7;-5.68641114982578;0;0;0;1.52366399997845;0
1;9;257;NaN;18;38;1.66641549998894;111;0.249969181837514;0;2.00811328459531;0;9;41;NaN;2;20;21.3135888501742;0;0;0;1.66641549998894;0
2;9;258;170;97;109;1.42430229997262;130;0.249979270389304;0.249971788842231;2.00811144080944;2.00811217026785;9;-79;73;2;12;13.3135888501742;0;0;0;1.42430229997262;0
1;9;259;NaN;17;2;1.11565029993653;104;0.249976481078193;0;2.00811408902518;0;9;80;NaN;2;-15;-13.6864111498258;0;0;0;1.11565029993653;0
2;9;260;152;24;6;1.76587359979749;144;0.24997908109799;0.249969766708091;2.00811026664451;2.00811441475525;9;-7;-52;2;-18;-16.6864111498258;0;0;0;1.76587359979749;0
1;9;261;NaN;142;162;1.49140870012343;107;0.249973129481077;0;2.00811162567697;0;9;62;NaN;2;20;21.3135888501742;0;0;0;1.49140870012343;0
1;9;262;NaN;35;16;1.79986519995145;90;0.249979825923219;0;2.00810672948137;0;9;-73;NaN;2;-19;-17.6864111498258;0;0;0;1.79986519995145;0
1;9;263;NaN;91;100;1.09993330016732;92;0.249978588428348;0;2.0081072000321;0;9;-56;NaN;2;9;10.3135888501742;0;0;0;1.09993330016732;0
1;9;264;NaN;123;121;0.890252500073984;102;0.249980548396707;0;2.00810429942794;0;9;-32;NaN;2;-2;-0.686411149825784;0;0;0;0.890252500073984;0
2;9;265;73;85;83;1.11699180002324;78;0.249984410824254;0.249970414675772;2.0081118370872;2.00810938887298;9;38;-12;2;-2;-0.686411149825784;0;0;0;1.11699180002324;0
1;9;266;NaN;127;134;1.60723530012183;91;0.249976914608851;0;2.00811176304705;0;9;-42;NaN;2;7;8.31358885017422;0;0;0;1.60723530012183;0
1;9;267;NaN;34;19;1.14985940000042;8;0.249967707786709;0;2.00812232913449;0;9;-87;NaN;2;-15;-13.6864111498258;0;0;0;1.14985940000042;0
2;9;268;57;103;117;0.875328900059685;157;0.249978340230882;0.249971022130921;2.00811212230474;2.0081085592974;9;-69;-46;2;14;15.3135888501742;0;0;0;0.875328900059685;0
1;9;269;NaN;84;77;1.29036119999364;178;0.249972229590639;0;2.00812286278233;0;9;19;NaN;2;-7;-5.68641114982578;0;0;0;1.29036119999364;0
2;9;270;106;174;167;1.36667789984494;12;0.249980803346261;0.249974462669343;2.00810252968222;2.00810184446163;9;-90;-68;2;-7;-5.68641114982578;0;0;0;1.36667789984494;0
2;10;271;4;7;8;6.34874769998714;15;0.249981681117788;0.249970270320773;2.00811060005799;2.00811414071359;10;-13;-3;2;1;NaN;0;0;1;6.34874769998714;0
1;10;272;NaN;17;15;1.23297619982623;139;0.249963411130011;0;2.00810978491791;0;10;-10;NaN;2;-2;-0.686411149825784;0;0;0;1.23297619982623;0
2;10;273;172;53;40;1.14199250005186;73;0.249985378002748;0.249967189272866;2.0081012295559;2.00811098120175;10;-36;-61;2;-13;-11.6864111498258;0;0;0;1.14199250005186;0
1;10;274;NaN;57;57;1.5582564000506;175;0.249981503235176;0;2.00810804823413;0;10;-4;NaN;2;0;1.31358885017422;0;0;0;1.5582564000506;0
2;10;275;30;64;52;1.1836041000206;7;0.249977951403707;0.249974577687681;2.00811300380155;2.00811460008845;10;-7;-34;2;-12;-10.6864111498258;0;0;0;1.1836041000206;0
1;10;276;NaN;107;101;1.32493899995461;122;0.249980696011335;0;2.0081128703896;0;10;-43;NaN;2;-6;-4.68641114982578;0;0;0;1.32493899995461;0
2;10;277;32;155;145;1.23227579984814;36;0.249972944613546;0.249974281294271;2.00811791419983;2.00810744822957;10;-48;57;2;-10;-8.68641114982578;0;0;0;1.23227579984814;0
1;10;278;NaN;79;75;1.2748169999104;38;0.249976851511747;0;2.00811076303944;0;10;76;NaN;2;-4;-2.68641114982578;0;0;0;1.2748169999104;0
1;10;279;NaN;102;110;0.999887499958277;107;0.249975392362103;0;2.00810637394898;0;10;-23;NaN;2;8;9.31358885017422;0;0;0;0.999887499958277;0
2;10;280;95;158;162;0.991825300035998;113;0.249982429202646;0.249966622330248;2.00811080005951;2.0081122405827;10;-56;-63;2;4;5.31358885017422;0;0;0;0.991825300035998;0
2;10;281;157;134;138;1.06691859988496;68;0.249978548148647;0.249972977675498;2.00811415934004;2.00810894812457;10;24;23;2;4;5.31358885017422;0;0;0;1.06691859988496;0
1;10;282;NaN;6;6;1.99842610000633;177;0.249982566572726;0;2.00811293325387;0;10;-52;NaN;2;0;1.31358885017422;0;0;0;1.99842610000633;0
1;10;283;NaN;43;41;0.724928900133818;44;0.249980296008289;0;2.00810841470957;0;10;-37;NaN;2;-2;-0.686411149825784;0;0;0;0.724928900133818;0
2;10;284;153;2;172;1.09198620007373;94;0.249974748585373;0.249966073781252;2.00811431417242;2.00811494817026;10;41;-29;2;-10;-8.68641114982578;0;0;0;1.09198620007373;0
1;10;285;NaN;119;120;1.24895959999412;35;0.249976099701598;0;2.00811150390655;0;10;63;NaN;2;1;2.31358885017422;0;0;0;1.24895959999412;0
1;10;286;NaN;39;33;1.09167010011151;60;0.249978040345013;0;2.00810699653812;0;10;80;NaN;2;-6;-4.68641114982578;0;0;0;1.09167010011151;0
2;10;287;75;95;101;0.950277999974787;112;0.249973200494424;0.249971288954839;2.00811776937917;2.00811238517053;10;-56;-20;2;6;7.31358885017422;0;0;0;0.950277999974787;0
1;10;288;NaN;171;157;1.29984100000001;111;0.249982255510986;0;2.00811115535907;0;10;-76;NaN;2;-14;-12.6864111498258;0;0;0;1.29984100000001;0
2;10;289;141;52;35;1.1421074999962;0;0.249979618936777;0.24997317767702;2.00810512178577;2.00810972228646;10;-61;89;2;-17;-15.6864111498258;0;0;0;1.1421074999962;0
1;10;290;NaN;64;54;1.99094359995797;175;0.249973026104271;0;2.008103240747;0;10;-12;NaN;2;-10;-8.68641114982578;0;0;0;1.99094359995797;0
1;10;291;NaN;133;132;1.65688139991835;82;0.24998579849489;0;2.00810021860525;0;10;-69;NaN;2;-1;0.313588850174216;0;0;0;1.65688139991835;0
2;10;292;4;152;139;0.965774200158194;163;0.249969244468957;0.249973259400576;2.00811790698208;2.00811050320044;10;-19;32;2;-13;-11.6864111498258;0;0;0;0.965774200158194;0
2;10;293;48;146;149;1.29187309998088;93;0.24997362610884;0.249969881493598;2.00812123296782;2.00810687034391;10;6;82;2;3;4.31358885017422;0;0;0;1.29187309998088;0
1;10;294;NaN;80;81;0.991504099918529;44;0.249980503460392;0;2.00810714066029;0;10;66;NaN;2;1;2.31358885017422;0;0;0;0.991504099918529;0
2;10;295;141;120;129;1.19191169994883;3;0.249973966507241;0.249976099934429;2.00811362219974;2.00810910016298;10;-40;21;2;9;10.3135888501742;0;0;0;1.19191169994883;0
2;10;296;15;110;120;1.50024030008353;136;0.249980174005032;0.249972603516653;2.00810637744144;2.00810902216472;10;10;85;2;10;11.3135888501742;0;0;0;1.50024030008353;0
2;10;297;65;135;131;1.55015680007637;176;0.249982381006703;0.24997907388024;2.00809907028452;2.00809560343623;10;-25;-70;2;-4;-2.68641114982578;0;0;0;1.55015680007637;0
2;10;298;109;18;17;1.80007679993287;132;0.249984547728673;0.249979862710461;2.00810756278224;2.00809877389111;10;-63;-89;2;-1;0.313588850174216;0;0;0;1.80007679993287;0
1;10;299;NaN;65;57;1.79976189997979;18;0.249981840373948;0;2.00810492224991;0;10;-47;NaN;2;-8;-6.68641114982578;0;0;0;1.79976189997979;0
1;10;300;NaN;179;9;0.858299700077623;158;0.24997937027365;0;2.00811326690018;0;10;66;NaN;2;10;11.3135888501742;0;0;0;0.858299700077623;0
1;1;1;NaN;91;90;2.72355809994042;24;0.249971490586177;0;2.00810978724621;0;1;NaN;NaN;3;-1;-2.01481481481482;NaN;0;0;2.72355809994042;0
1;1;2;NaN;73;76;1.67478729994036;27;0.249980149324983;0;2.00811174605042;0;1;18;NaN;3;3;1.98518518518519;0;0;0;1.67478729994036;0
1;1;3;NaN;36;35;1.4749276000075;41;0.249956985237077;0;2.00812181271613;0;1;37;NaN;3;-1;-2.01481481481482;0;0;0;1.4749276000075;0
1;1;4;NaN;64;70;1.70806049997918;130;0.249975523678586;0;2.00812231888995;0;1;-28;NaN;3;6;4.98518518518518;0;0;0;1.70806049997918;0
2;1;5;11;74;65;1.17526490008458;37;0.249984277645126;0.249970125500113;2.00810078089125;2.00811596494168;1;-10;-63;3;-9;-10.0148148148148;0;0;0;1.17526490008458;0
2;1;6;57;49;52;1.24203610001132;91;0.249969044467434;0.249974074307829;2.00811233301647;2.00811581430025;1;25;8;3;3;1.98518518518519;0;0;0;1.24203610001132;0
2;1;7;90;15;11;1.95850089984015;9;0.249984671361744;0.249976834980771;2.00810566986911;2.00810748548247;1;34;75;3;-4;-5.01481481481482;0;0;0;1.95850089984015;0
1;1;8;NaN;65;64;2.12475530011579;52;0.249974263599142;0;2.00811449368484;0;1;-50;NaN;3;-1;-2.01481481481482;0;0;0;2.12475530011579;0
1;1;9;NaN;15;11;1.34977729991078;169;0.249984071590006;0;2.00810720631853;0;1;50;NaN;3;-4;-5.01481481481482;0;0;0;1.34977729991078;0
1;1;10;NaN;89;92;1.78290749993175;69;0.249976728577167;0;2.00812016334385;0;1;-74;NaN;3;3;1.98518518518519;0;0;0;1.78290749993175;0
2;1;11;3;76;74;1.44196549989283;70;0.249982615932822;0.249971639597788;2.00810302537866;2.00810993975028;1;13;-73;3;-2;-3.01481481481482;0;0;0;1.44196549989283;0
2;1;12;39;21;21;1.15872730012052;45;0.249984557041898;0.249958779430017;2.00811120145954;2.00811183475889;1;55;18;3;0;-1.01481481481481;0;0;0;1.15872730012052;0
2;1;13;78;128;132;5.19141529989429;35;0.24997958727181;0.249974485719576;2.00811798241921;2.00810871575959;1;73;-50;3;4;2.98518518518518;0;0;0;5.19141529989429;0
1;1;14;NaN;90;95;1.32363849994726;70;0.249976258724928;0;2.00811882060952;0;1;38;NaN;3;5;3.98518518518518;0;0;0;1.32363849994726;0
2;1;15;48;145;135;1.90019040019251;173;0.249980919063091;0.249972290592268;2.00810883962549;2.00810879492201;1;-55;83;3;-10;-11.0148148148148;0;0;0;1.90019040019251;0
2;1;16;178;68;62;2.30734489997849;174;0.249984636437148;0.249971699900925;2.00811123009771;2.00810948899016;1;77;-70;3;-6;-7.01481481481482;0;0;0;2.30734489997849;0
1;1;17;NaN;47;76;1.68312739999965;144;0.249982012668625;0;2.00810497952625;0;1;21;NaN;3;29;NaN;0;1;0;NaN;0
2;1;18;66;106;117;1.44202830013819;120;0.249980475986376;0.249970174627379;2.00811365409754;2.00811499357224;1;-59;-40;3;11;9.98518518518519;0;0;0;1.44202830013819;0
2;1;19;122;81;71;2.99913090001792;28;0.249977212399244;0.249968414427713;2.00811587949283;2.00811112043448;1;25;41;3;-10;-11.0148148148148;0;0;0;2.99913090001792;0
1;1;20;NaN;119;113;3.60702100000344;13;0.249981573084369;0;2.00810566963628;0;1;-38;NaN;3;-6;-7.01481481481482;0;0;0;3.60702100000344;0
1;1;21;NaN;58;66;1.74979749997146;179;0.249977166764438;0;2.0081113348715;0;1;61;NaN;3;8;6.98518518518518;0;0;0;1.74979749997146;0
2;1;22;170;156;160;1.62429099995643;147;0.249978279462084;0.249967293813825;2.00811090646312;2.00811183010228;1;82;14;3;4;2.98518518518518;0;0;0;1.62429099995643;0
2;1;23;58;94;90;2.391979200067;3;0.249976261751726;0.249968755291775;2.00811064429581;2.00811463501304;1;62;-36;3;-4;-5.01481481481482;0;0;0;2.391979200067;0
2;1;24;116;172;166;1.86679340014234;118;0.249983057146892;0.249969004653394;2.00810881587677;2.0081159255933;1;-78;-56;3;-6;-7.01481481481482;0;0;0;1.86679340014234;0
1;1;25;NaN;88;92;5.274483300047;125;0.249978206353262;0;2.00810756022111;0;1;84;NaN;3;4;2.98518518518518;0;0;0;5.274483300047;0
1;1;26;NaN;153;152;1.74992019985802;78;0.249967501498759;0;2.00811473489739;0;1;-65;NaN;3;-1;-2.01481481481482;0;0;0;1.74992019985802;0
2;1;27;149;30;27;3.6083722000476;55;0.249974392354488;0.249975215876475;2.00811836961657;2.00811121892184;1;-57;-61;3;-3;-4.01481481481482;0;0;0;3.6083722000476;0
2;1;28;64;66;57;1.25020850007422;1;0.249980543041602;0.2499755253084;2.00810924428515;2.00809971429408;1;-36;-2;3;-9;-10.0148148148148;0;0;0;1.25020850007422;0
1;1;29;NaN;7;13;1.27484260010533;3;0.249968825373799;0;2.00810820003971;0;1;59;NaN;3;6;4.98518518518518;0;0;0;1.27484260010533;0
1;1;30;NaN;157;160;1.848922500154;84;0.24997678748332;0;2.00810426496901;0;1;30;NaN;3;3;1.98518518518519;0;0;0;1.848922500154;0
2;2;31;57;156;150;1.66681009996682;147;0.24998407275416;0.249973564874381;2.00810408079997;2.0081107954029;2;1;81;3;-6;NaN;0;0;1;1.66681009996682;0
1;2;32;NaN;113;112;1.1249017000664;80;0.249975475948304;0;2.00811289995909;0;2;43;NaN;3;-1;-2.01481481481482;0;0;0;1.1249017000664;0
1;2;33;NaN;21;41;0.990267500048503;86;0.249968390446156;0;2.00811316515319;0;2;-88;NaN;3;20;18.9851851851852;0;0;0;0.990267500048503;0
2;2;34;176;74;74;3.55743950000033;160;0.249980018939823;0.249955795239657;2.00811034301296;2.0081220541615;2;-53;-78;3;0;-1.01481481481481;0;0;0;3.55743950000033;0
1;2;35;NaN;118;122;1.19990039989352;51;0.249978217296302;0;2.00811165058985;0;2;-44;NaN;3;4;2.98518518518518;0;0;0;1.19990039989352;0
2;2;36;165;107;98;3.34184610005468;158;0.249977287137881;0.249972090357915;2.00812111911364;2.00811265897937;2;11;58;3;-9;-10.0148148148148;0;0;0;3.34184610005468;0
2;2;37;88;144;119;2.05841489997692;119;0.249975845916197;0.249966853996739;2.00811046175659;2.00811386993155;2;-37;-56;3;-25;NaN;0;1;0;NaN;0
2;2;38;157;82;83;2.57426119991578;28;0.249972592107952;0.249974966747686;2.00811531441286;2.00810622842982;2;62;75;3;1;-0.0148148148148148;0;0;0;2.57426119991578;0
2;2;39;119;138;112;3.832504699938;33;0.249967909650877;0.249975325306877;2.0081191030331;2.00810714322142;2;-56;-19;3;-26;NaN;0;1;0;NaN;0
1;2;40;NaN;24;61;3.1744870999828;89;0.249975755577907;0;2.00810792529956;0;2;-66;NaN;3;37;NaN;0;1;0;NaN;0
1;2;41;NaN;49;73;1.74058190011419;118;0.24996749847196;0;2.00810777419247;0;2;-25;NaN;3;24;NaN;0;1;0;NaN;0
2;2;42;19;103;98;2.84822660009377;50;0.249974048929289;0.249972885707393;2.00811383803375;2.00811077002436;2;-54;-84;3;-5;-6.01481481481482;0;0;0;2.84822660009377;0
1;2;43;NaN;171;173;2.83204120001756;53;0.24999037780799;0;2.00810080929659;0;2;-68;NaN;3;2;0.985185185185185;0;0;0;2.83204120001756;0
1;2;44;NaN;176;20;1.78305520000868;101;0.249976350693032;0;2.00810647150502;0;2;-5;NaN;3;24;NaN;0;1;0;NaN;0
2;2;45;27;89;85;2.68341509997845;25;0.249975352315232;0.249967520590872;2.0081117444206;2.00811778893694;2;87;-62;3;-4;-5.01481481481482;0;0;0;2.68341509997845;0
2;2;46;31;151;163;3.31669669994153;138;0.249969037948176;0.249972155550495;2.00810790481046;2.00811750954017;2;-62;60;3;12;10.9851851851852;0;0;0;3.31669669994153;0
1;2;47;NaN;75;69;1.69149659993127;27;0.249984066467732;0;2.00810795556754;0;2;76;NaN;3;-6;-7.01481481481482;0;0;0;1.69149659993127;0
1;2;48;NaN;140;121;1.31650309986435;71;0.249973744153976;0;2.00811153487302;0;2;-65;NaN;3;-19;-20.0148148148148;0;0;0;1.31650309986435;0
1;2;49;NaN;49;52;1.25811150018126;142;0.249975277809426;0;2.00811522058211;0;2;-89;NaN;3;3;1.98518518518519;0;0;0;1.25811150018126;0
2;2;50;175;48;49;1.9655766999349;178;0.249983744462952;0.249973404919729;2.00810979516245;2.00811349018477;2;1;-53;3;1;-0.0148148148148148;0;0;0;1.9655766999349;0
1;2;51;NaN;44;48;1.73322200006805;85;0.249974480830133;0;2.00811429042369;0;2;4;NaN;3;4;2.98518518518518;0;0;0;1.73322200006805;0
1;2;52;NaN;34;43;1.73214529990219;3;0.249971057288349;0;2.00810403004289;0;2;10;NaN;3;9;7.98518518518518;0;0;0;1.73214529990219;0
1;2;53;NaN;11;27;5.56514200009406;149;0.249973433325067;0;2.00811686809175;0;2;23;NaN;3;16;14.9851851851852;0;0;0;5.56514200009406;0
1;2;54;NaN;75;70;1.99995599989779;80;0.249971206299961;0;2.00811929511838;0;2;-64;NaN;3;-5;-6.01481481481482;0;0;0;1.99995599989779;0
1;2;55;NaN;63;67;1.79152420000173;0;0.24995063780807;0;2.00811516051181;0;2;12;NaN;3;4;2.98518518518518;0;0;0;1.79152420000173;0
2;2;56;48;15;20;1.5909439001698;75;0.249975907849148;0.24997102539055;2.00810589524917;2.00811510463245;2;48;33;3;5;3.98518518518518;0;0;0;1.5909439001698;0
2;2;57;135;13;21;1.92529989988543;10;0.249973261961713;0.249974370002747;2.00811473466456;2.00810723006725;2;2;-58;3;8;6.98518518518518;0;0;0;1.92529989988543;0
2;2;58;10;59;81;1.31689899996854;154;0.249970895238221;0.249978914158419;2.00811660476029;2.00811232067645;2;-46;-49;3;22;20.9851851851852;0;0;0;1.31689899996854;0
2;2;59;68;89;88;1.85863509983756;175;0.249978868057951;0.249966939678416;2.00810649991035;2.00811331439763;2;-30;-21;3;-1;-2.01481481481482;0;0;0;1.85863509983756;0
2;2;60;176;168;160;1.94094370002858;25;0.249976782361045;0.249968604883179;2.0081101951655;2.00811109528877;2;-79;8;3;-8;-9.01481481481481;0;0;0;1.94094370002858;0
2;3;61;45;160;159;2.03261730005033;1;0.249978166772053;0.249968247720972;2.00811005523428;2.00811403174885;3;8;65;3;-1;NaN;0;0;1;2.03261730005033;0
1;3;62;NaN;126;117;1.95820560003631;173;0.249992112861946;0;2.00809531565756;0;3;34;NaN;3;-9;-10.0148148148148;0;0;0;1.95820560003631;0
1;3;63;NaN;51;68;3.14861149992794;167;0.24998349044472;0;2.00810724589974;0;3;75;NaN;3;17;15.9851851851852;0;0;0;3.14861149992794;0
2;3;64;109;124;127;1.40959419985302;55;0.249970387201756;0.249970290577039;2.00813176040538;2.00810405076481;3;-73;-15;3;3;1.98518518518519;0;0;0;1.40959419985302;0
1;3;65;NaN;54;69;2.01634950004518;140;0.249966338044032;0;2.0081102445256;0;3;70;NaN;3;15;13.9851851851852;0;0;0;2.01634950004518;0
1;3;66;NaN;46;53;1.24998419987969;33;0.249980852240697;0;2.00811604922637;0;3;8;NaN;3;7;5.98518518518518;0;0;0;1.24998419987969;0
1;3;67;NaN;64;72;1.66670159995556;173;0.249979571206495;0;2.00810720166191;0;3;-18;NaN;3;8;6.98518518518518;0;0;0;1.66670159995556;0
2;3;68;170;122;114;1.59184769983403;165;0.249974392121658;0.249972003279254;2.0081132967025;2.00811358075589;3;-58;48;3;-8;-9.01481481481481;0;0;0;1.59184769983403;0
1;3;69;NaN;129;124;1.59143949998543;91;0.249984282301739;0;2.00810692552477;0;3;-7;NaN;3;-5;-6.01481481481482;0;0;0;1.59143949998543;0
1;3;70;NaN;106;106;0.900048800045624;137;0.249981955625117;0;2.00811449508183;0;3;23;NaN;3;0;-1.01481481481481;0;0;0;0.900048800045624;0
2;3;71;130;151;121;1.97527830000035;153;0.249980331398547;0.24997570971027;2.00810953509063;2.00810448569246;3;-45;-21;3;-30;NaN;0;1;0;NaN;0
2;3;72;32;112;101;2.26681399997324;24;0.249974420526996;0.249971925280988;2.0081152508501;2.00811283034272;3;39;-80;3;-11;-12.0148148148148;0;0;0;2.26681399997324;0
1;3;73;NaN;134;133;3.24129829998128;1;0.249983557267115;0;2.00810572062619;0;3;-22;NaN;3;-1;-2.01481481481482;0;0;0;3.24129829998128;0
2;3;74;63;155;154;1.40890210005455;91;0.249981396831572;0.249972941121086;2.00810965546407;2.00810197624378;3;-21;88;3;-1;-2.01481481481482;0;0;0;1.40890210005455;0
