block,trial,nstim,condition,theta,delta,resp,rt,bar_start,avg_stim_duration,avg_blank_duration,obs,female,age,ntrials,error,errorc,error_out_after,error_removed,block_start_index,rtc,delta_btw,delta_btw_bk2,seq_1,seq_2,seq_3,seq_4,seq_5,seq_6,seq_7,seq_8,seq_9,seq_10,seq_11,seq_12,laststim,delta_diff,ptrialout,errorsigm
1,1,10,1,25,-30,23,1.08912030002102,23,0.199977502692491,0.399954157671891,1,1,20,280,-2,0.923859481034021,NaN,0,0,1.08912030002102,NaN,NaN,75,21,97,48,40,139,2,152,175,25,,,175,NaN,0.0964285714285714,18.9770656176672
1,2,12,1,46,-74,43,1.34041949990205,4,0.199977612918398,0.399953555742589,1,NaN,20,280,-3,-0.750958308114307,0,0,0,1.34041949990205,-21,NaN,106,68,100,138,62,35,11,57,64,5,152,46,152,53,0.0964285714285714,18.9770656176672
1,3,8,1,45,9,40,0.532244600122795,40,0.199978079326684,0.399951528583188,1,NaN,20,280,-5,3.47835935108899,0,0,0,0.532244600122795,1,-20,35,157,150,101,100,10,54,45,,,,,54,8,0.0964285714285714,18.9770656176672
1,4,9,1,82,-18,101,1.23047189996578,103,0.199978284072131,0.399953342094604,1,NaN,20,280,19,18.6813541083405,0,0,0,1.23047189996578,-37,-36,99,12,135,33,170,52,138,64,82,,,,64,19,0.0964285714285714,18.9770656176672
1,5,7,1,87,-45,84,1.44906390015967,97,0.199979473770197,0.399952268261196,1,NaN,20,280,-3,-0.287334550151376,0,0,0,1.44906390015967,-5,-42,158,176,27,84,170,42,87,,,,,,42,40,0.0964285714285714,18.9770656176672
1,6,4,1,152,-38,141,1.40607939986512,6,0.199977101467084,0.399949922284577,1,NaN,20,280,-11,-6.04968286998265,0,0,0,1.40607939986512,-65,-70,145,42,114,152,,,,,,,,,114,27,0.0964285714285714,18.9770656176672
1,7,11,1,167,47,156,0.831106300000101,26,0.199976035012779,0.399956400739029,1,NaN,20,280,-11,-13.1953529730701,0,0,0,0.831106300000101,-15,-80,176,80,81,34,153,21,123,162,87,34,167,,34,62,0.0964285714285714,18.9770656176672
1,8,9,1,71,-54,66,0.573917199857533,66,0.199976032832637,0.399956120540284,1,NaN,20,280,-5,1.95874016340796,0,0,0,0.573917199857533,-84,81,6,117,18,152,5,83,173,17,71,,,,17,30,0.0964285714285714,18.9770656176672
1,9,10,1,79,50,71,1.61384210013784,26,0.199976482987404,0.399956816365011,1,NaN,20,280,-8,-9.13412523643998,0,0,0,1.61384210013784,-8,88,153,38,49,41,179,46,17,153,129,79,,,129,58,0.0964285714285714,18.9770656176672
1,10,12,1,104,-73,114,1.53988380008377,10,0.199975097202696,0.399956607512043,1,NaN,20,280,10,8.8375846461275,0,0,0,1.53988380008377,-25,-33,46,158,148,67,76,130,131,81,139,78,31,104,31,48,0.0964285714285714,18.9770656176672
1,11,7,1,42,32,29,1.15715019986965,87,0.199978103029675,0.399955459371475,1,NaN,20,280,-13,-5.45289709560562,0,0,0,1.15715019986965,62,37,61,4,130,127,28,74,42,,,,,,74,30,0.0964285714285714,18.9770656176672
1,12,6,1,46,-31,52,1.17386329988949,90,0.199976690035934,0.399956456618384,1,NaN,20,280,6,8.24904169188569,0,0,0,1.17386329988949,-4,58,22,98,131,7,15,46,,,,,,,15,27,0.0964285714285714,18.9770656176672
1,13,8,1,82,-60,70,1.18983800010756,8,0.199977976357331,0.399956868117442,1,NaN,20,280,-12,-12.3186458916595,0,0,0,1.18983800010756,-36,-40,178,177,168,16,79,82,22,82,,,,,22,24,0.0964285714285714,18.9770656176672
1,14,12,1,156,49,123,2.22370079997927,0,0.199975795228966,0.399956923560239,1,NaN,20,280,-33,-20.7217443453091,0,0,0,2.22370079997927,-74,70,136,119,139,122,166,133,1,131,22,102,25,156,25,57,0.0964285714285714,18.9770656176672
1,15,8,1,162,67,144,1.59049999993294,174,0.19997501373291,0.399955948989373,1,NaN,20,280,-18,-13.4035232315589,0,0,0,1.59049999993294,-6,-80,39,35,10,149,158,101,49,162,,,,,49,73,0.0964285714285714,18.9770656176672
1,16,7,1,153,-54,159,1.35610910016112,108,0.199976107571274,0.399952493674521,1,NaN,20,280,6,10.0647839330187,0,0,0,1.35610910016112,9,3,177,59,95,149,145,99,153,,,,,,99,63,0.0964285714285714,18.9770656176672
1,17,5,1,162,5,165,1.3739122999832,108,0.1999766362831,0.399956720974296,1,NaN,20,280,3,7.59647676844107,0,0,0,1.3739122999832,-9,0,54,150,105,167,162,,,,,,,,167,14,0.0964285714285714,18.9770656176672
1,18,10,1,140,-18,145,1.59043229999952,97,0.199976605246775,0.399955128738657,1,NaN,20,280,5,13.7070557803526,0,0,0,1.59043229999952,22,13,51,39,6,129,71,42,162,14,122,140,,,122,40,0.0964285714285714,18.9770656176672
1,19,9,1,148,36,124,1.74775720015168,170,0.199979875107399,0.399954613789709,1,NaN,20,280,-24,-22.9948884320664,0,0,0,1.74775720015168,-8,14,14,45,151,104,160,132,85,4,148,,,,4,44,0.0964285714285714,18.9770656176672
1,20,4,1,173,-60,152,0.981895200209692,152,0.19997692538891,0.399957827583421,1,NaN,20,280,-21,-9.14700703097315,0,0,0,0.981895200209692,-25,-33,145,114,113,173,,,,,,,,,113,35,0.0964285714285714,18.9770656176672
1,21,10,1,173,31,155,1.47277790005319,108,0.199978204141371,0.399954473995604,1,NaN,20,280,-18,-6.14700703097315,0,0,0,1.47277790005319,0,-25,28,116,8,83,161,143,134,165,24,173,,,24,31,0.0964285714285714,18.9770656176672
1,22,5,1,69,13,71,1.38208759995177,55,0.199977444577962,0.39995377426967,1,NaN,20,280,2,10.2469790971238,0,0,0,1.38208759995177,-76,-76,0,48,130,82,69,,,,,,,,82,89,0.0964285714285714,18.9770656176672
1,23,6,1,115,-30,123,0.997702199965715,86,0.199976412657027,0.399957236407014,1,NaN,20,280,8,6.11644546710042,0,0,0,0.997702199965715,-46,58,56,137,98,135,85,115,,,,,,,85,16,0.0964285714285714,18.9770656176672
1,24,10,1,47,-13,50,1.59018830000423,178,0.199978864844888,0.399955286318436,1,NaN,20,280,3,9.04193246292411,0,0,0,1.59018830000423,68,22,177,4,18,115,166,111,122,137,34,47,,,34,81,0.0964285714285714,18.9770656176672
1,25,6,1,70,79,51,1.52271479996853,159,0.199975626853605,0.39995308596796,1,NaN,20,280,-19,-13.5382609763677,0,0,0,1.52271479996853,-23,45,74,9,154,19,149,70,,,,,,,149,78,0.0964285714285714,18.9770656176672
1,26,10,1,172,71,0,1.43948170007206,101,0.199975528707728,0.399955694121309,1,NaN,20,280,8,14.8824581009805,0,0,0,1.43948170007206,78,55,85,7,27,128,150,21,176,124,63,172,,,63,7,0.0964285714285714,18.9770656176672
1,27,5,1,171,62,164,1.78121619997546,73,0.199975891597569,0.39995305640623,1,NaN,20,280,-7,6.00967618947138,0,0,0,1.78121619997546,1,79,63,87,178,53,171,,,,,,,,53,61,0.0964285714285714,18.9770656176672
1,28,7,1,42,-74,166,4.04768700012937,83,0.199978379765525,0.399957050968494,1,NaN,20,280,-56,NaN,0,1,0,NaN,-51,-50,20,126,36,80,159,148,42,,,,,,148,23,0.0964285714285714,18.9770656176672
1,29,7,1,42,11,22,0.947830399964005,35,0.19997569665845,0.399956148783011,1,NaN,20,280,-20,-12.4528970956056,1,0,0,0.947830399964005,0,-51,75,118,178,27,82,53,42,,,,,,53,11,0.0964285714285714,18.9770656176672
1,30,8,1,133,-10,144,2.0655047998298,43,0.199977434036555,0.399954004969914,1,NaN,20,280,11,11.8600877146171,0,0,0,2.0655047998298,89,89,45,23,134,138,150,42,123,133,,,,,123,81,0.0964285714285714,18.9770656176672
1,31,12,1,126,72,135,1.29042660002597,77,0.199977914240056,0.399953858713464,1,NaN,20,280,9,5.44854116108811,0,0,0,1.29042660002597,7,-84,48,156,63,139,159,169,39,117,82,160,18,126,18,65,0.0964285714285714,18.9770656176672
1,32,7,1,93,31,112,1.93210570001975,155,0.19997699911307,0.399955227073016,1,NaN,20,280,19,13.4144379182369,0,0,0,1.93210570001975,33,40,160,127,169,126,135,124,93,,,,,,124,2,0.0964285714285714,18.9770656176672
1,33,12,1,66,-45,60,1.91484199999832,84,0.199977577489335,0.399955594562925,1,NaN,20,280,-6,1.95574990788209,0,0,0,1.91484199999832,27,60,113,21,41,103,145,24,127,162,45,11,21,66,21,72,0.0964285714285714,18.9770656176672
1,34,4,1,85,66,65,1.03231819998473,90,0.199974958377425,0.39995822054334,1,NaN,20,280,-20,-11.8387770884821,0,0,0,1.03231819998473,-19,8,53,49,151,85,,,,,,,,,151,85,0.0964285714285714,18.9770656176672
1,35,10,1,64,1,58,1.48954270011745,118,0.199976585805416,0.399954526685178,1,NaN,20,280,-6,1.99119724103331,0,0,0,1.48954270011745,21,2,114,13,109,70,16,97,61,114,65,64,,,65,20,0.0964285714285714,18.9770656176672
1,36,8,1,73,-38,51,1.23967029992491,141,0.199978674441809,0.399954124790384,1,NaN,20,280,-22,-18.2165896634116,0,0,0,1.23967029992491,-9,12,30,89,56,47,113,103,35,73,,,,,35,29,0.0964285714285714,18.9770656176672
1,37,12,1,124,-55,123,1.25712319999002,94,0.199975660478231,0.399955779120016,1,NaN,20,280,-1,-1.66048483726878,0,0,0,1.25712319999002,-51,-60,143,101,91,158,173,16,125,43,156,19,69,124,69,4,0.0964285714285714,18.9770656176672
1,38,12,1,165,-71,157,0.981747599784285,98,0.199979789070009,0.399954282329418,1,NaN,20,280,-8,-9.02887593575378,0,0,0,0.981747599784285,-41,88,148,105,38,110,22,105,11,158,157,19,94,165,94,30,0.0964285714285714,18.9770656176672
1,39,11,1,94,-45,109,0.590031699975953,109,0.199978281934322,0.39995577334511,1,NaN,20,280,15,12.0862520110226,0,0,0,0.590031699975953,71,30,16,0,26,19,91,39,62,36,158,49,94,,49,64,0.0964285714285714,18.9770656176672
1,40,10,1,57,-37,146,3.87290160008706,7,0.199976437957957,0.399956193543039,1,NaN,20,280,89,NaN,0,1,0,NaN,37,-72,134,67,2,47,12,35,29,171,20,57,,,20,74,0.0964285714285714,18.9770656176672
1,41,6,1,65,67,56,0.582281899871305,56,0.199981374084018,0.39995293028187,1,NaN,20,280,-9,-6.02292156153634,1,0,0,0.582281899871305,-8,29,20,77,111,44,132,65,,,,,,,132,75,0.0964285714285714,18.9770656176672
1,42,11,1,62,-46,57,1.65719639998861,76,0.199977160537277,0.39995582558384,1,NaN,20,280,-5,-4.08417716361904,0,0,0,1.65719639998861,3,-5,138,19,52,108,22,77,54,0,133,16,62,,16,49,0.0964285714285714,18.9770656176672
1,43,6,1,57,-76,53,1.13219929998741,68,0.199977079988457,0.399954361181396,1,NaN,20,280,-4,1.28109491844448,0,0,0,1.13219929998741,5,8,150,72,92,87,161,57,,,,,,,161,81,0.0964285714285714,18.9770656176672
1,44,7,1,100,-15,117,1.20724250003695,159,0.199976471851447,0.399954258231446,1,NaN,20,280,17,21.19631329146,0,0,0,1.20724250003695,-43,-38,37,152,84,43,97,85,100,,,,,,85,28,0.0964285714285714,18.9770656176672
1,45,11,1,85,-79,57,1.02343830000609,96,0.199977321338586,0.399953989523717,1,NaN,20,280,-28,-19.8387770884821,0,0,0,1.02343830000609,15,-28,59,20,175,61,36,62,72,125,101,6,85,,6,86,0.0964285714285714,18.9770656176672
1,46,12,1,100,-70,109,1.7900589001365,63,0.199976048063642,0.399957848053115,1,NaN,20,280,9,13.19631329146,0,0,0,1.7900589001365,-15,0,75,47,48,172,47,108,59,122,31,126,30,100,30,55,0.0964285714285714,18.9770656176672
1,47,5,1,73,27,121,0.831295700045303,120,0.199977965513244,0.399954347964376,1,NaN,20,280,48,NaN,0,1,0,NaN,27,12,34,107,113,100,73,,,,,,,,100,0,0.0964285714285714,18.9770656176672
1,48,10,1,130,-9,119,1.09829040011391,66,0.199977963929996,0.399954909761436,1,NaN,20,280,-11,-13.0831901506366,1,0,0,1.09829040011391,-57,-30,42,125,15,100,115,110,124,170,121,130,,,121,48,0.0964285714285714,18.9770656176672
1,49,4,1,45,53,39,0.874088800046593,72,0.199975496914703,0.399954344902653,1,NaN,20,280,-6,2.47835935108899,0,0,0,0.874088800046593,85,28,42,102,98,45,,,,,,,,,98,32,0.0964285714285714,18.9770656176672
1,50,7,1,49,-42,63,1.7146509999875,179,0.199977866373956,0.399954382230395,1,NaN,20,280,14,14.6136760155408,0,0,0,1.7146509999875,-4,81,77,3,164,67,66,7,49,,,,,,7,38,0.0964285714285714,18.9770656176672
1,51,12,1,40,19,54,1.28222330007702,160,0.199976040438438,0.399955174381224,1,NaN,20,280,14,12.5739270980193,0,0,0,1.28222330007702,9,5,5,143,138,51,40,61,7,131,171,7,59,40,59,10,0.0964285714285714,18.9770656176672
1,52,11,1,49,40,42,1.37269399990328,118,0.199976060475985,0.399956770452925,1,NaN,20,280,-7,-6.3863239844592,0,0,0,1.37269399990328,-9,0,33,16,122,119,177,6,108,172,8,89,49,,89,49,0.0964285714285714,18.9770656176672
1,53,7,1,59,-58,60,1.41554259997793,166,0.199976061504068,0.399955851225449,1,NaN,20,280,1,8.0883423795548,0,0,0,1.41554259997793,-10,-19,125,173,171,125,172,1,59,,,,,,1,48,0.0964285714285714,18.9770656176672
1,54,5,1,65,8,67,1.2980308001861,13,0.199977804580703,0.399956800974905,1,NaN,20,280,2,4.97707843846366,0,0,0,1.2980308001861,-6,-16,73,51,22,73,65,,,,,,,,73,14,0.0964285714285714,18.9770656176672
1,55,9,1,109,-81,108,1.3237479000818,166,0.199978830965443,0.39995268988423,1,NaN,20,280,-1,-13.5630475070986,0,0,0,1.3237479000818,-44,-50,141,165,74,24,132,44,174,28,109,,,,28,37,0.0964285714285714,18.9770656176672
1,56,9,1,110,-89,115,1.30723319994286,129,0.199977771146223,0.399952448801034,1,NaN,20,280,5,-2.90394311405534,0,0,0,1.30723319994286,-1,-45,147,146,27,86,56,131,13,21,110,,,,21,88,0.0964285714285714,18.9770656176672
1,57,12,1,103,-28,127,0.957461000187322,127,0.199976421368774,0.399955274789439,1,NaN,20,280,24,22.9520447582857,0,0,0,0.957461000187322,7,6,147,156,46,33,68,140,116,62,145,177,75,103,75,35,0.0964285714285714,18.9770656176672
1,58,11,1,121,-4,107,1.02376100001857,27,0.199975309364328,0.399955489185893,1,NaN,20,280,-14,-8.62246995936324,0,0,0,1.02376100001857,-18,-11,54,164,119,41,8,113,141,85,138,117,121,,117,14,0.0964285714285714,18.9770656176672
1,59,5,1,41,-14,32,1.91544360015541,80,0.199976371508092,0.399953397689387,1,NaN,20,280,-9,-6.46805308408105,0,0,0,1.91544360015541,80,62,43,99,111,27,41,,,,,,,,27,86,0.0964285714285714,18.9770656176672
1,60,9,1,75,50,73,1.00722620007582,168,0.199979013685758,0.399953835592088,1,NaN,20,280,-2,1.22794690167239,0,0,0,1.00722620007582,-34,46,123,98,105,73,168,34,45,125,75,,,,125,84,0.0964285714285714,18.9770656176672
1,61,12,1,83,-9,63,5.64120609988458,158,0.199977296928409,0.399954634776805,1,NaN,20,280,-20,-14.168801625467,0,0,0,5.64120609988458,-8,-42,32,84,39,138,146,87,4,169,79,148,74,83,74,1,0.0964285714285714,18.9770656176672
1,62,11,1,99,60,80,2.21409189980477,169,0.199975538850677,0.39995707444508,1,NaN,20,280,-19,-14.2586505612525,0,0,0,2.21409189980477,-16,-24,94,35,48,27,81,68,144,52,119,159,99,,159,76,0.0964285714285714,18.9770656176672
1,63,12,1,2,15,4,5.05563299986534,160,0.199978978819369,0.399953874565351,1,NaN,20,280,2,-0.883578942715306,0,0,0,5.05563299986534,-83,81,119,123,24,142,11,55,47,104,138,157,17,2,17,82,0.0964285714285714,18.9770656176672
1,64,6,1,134,76,134,1.82275030016899,29,0.199975684362774,0.399957952011998,1,NaN,20,280,0,1.57051564967201,0,0,0,1.82275030016899,48,-35,30,68,142,21,30,134,,,,,,,30,28,0.0964285714285714,18.9770656176672
1,65,9,1,36,47,44,1.94893239997327,171,0.199975356123307,0.399955326251479,1,NaN,20,280,8,9.4322574897344,0,0,0,1.94893239997327,-82,-34,46,21,95,1,49,65,15,83,36,,,,83,51,0.0964285714285714,18.9770656176672
1,66,8,1,167,69,34,1.4570671999827,140,0.199977736920118,0.399954424006864,1,NaN,20,280,47,NaN,0,1,0,NaN,49,-33,158,129,121,150,171,159,56,167,,,,,56,20,0.0964285714285714,18.9770656176672
1,67,8,1,122,34,118,1.59057919983752,74,0.199974726565415,0.399956169247162,1,NaN,20,280,-4,-3.87501147820799,1,0,0,1.59057919983752,45,-86,59,144,127,103,79,138,156,122,,,,,156,11,0.0964285714285714,18.9770656176672
1,68,5,1,61,-20,36,1.00740540004335,78,0.199981767870486,0.39995219479315,1,NaN,20,280,-25,-17.4653655322303,0,0,0,1.00740540004335,61,-74,97,129,54,41,61,,,,,,,,41,81,0.0964285714285714,18.9770656176672
1,69,9,1,86,79,86,0.547656700015068,86,0.19997904346221,0.399955519630263,1,NaN,20,280,0,9.91483006230989,0,0,0,0.547656700015068,-25,36,137,59,10,159,12,175,142,165,86,,,,165,76,0.0964285714285714,18.9770656176672
1,70,5,1,85,-67,79,1.5730580999516,0,0.199974953429773,0.399955465272069,1,NaN,20,280,-6,2.16122291151788,0,0,0,1.5730580999516,1,-24,122,81,14,18,85,,,,,,,,18,68,0.0964285714285714,18.9770656176672
2,71,4,0,7,8,12,0.590742999920622,12,0.199977349955589,0.399953476618975,1,NaN,20,280,5,NaN,0,0,1,0.590742999920622,78,79,153,96,15,7,,,,,,,,,15,70,0.0964285714285714,18.9770656176672
2,72,10,0,118,-30,107,1.46441860008053,135,0.199977003363892,0.399961873120628,1,NaN,20,280,-11,-9.16154604953625,0,0,0,1.46441860008053,69,-33,39,158,80,7,35,35,39,96,88,118,,,88,81,0.0964285714285714,18.9770656176672
2,73,9,0,120,-43,118,1.34879969991744,15,0.199977089728539,0.399954493157566,1,NaN,20,280,-2,-1.87995232841617,0,0,0,1.34879969991744,-2,67,146,146,35,15,13,161,82,77,120,,,,77,41,0.0964285714285714,18.9770656176672
2,74,9,0,44,-77,44,1.55683689983562,94,0.199978177409826,0.399954280738408,1,NaN,20,280,0,10.3572939218898,0,0,0,1.55683689983562,76,74,115,157,155,124,157,62,86,147,44,,,,147,27,0.0964285714285714,18.9770656176672
2,75,7,0,59,-44,58,0.914573699934408,74,0.199977736221626,0.39995619272148,1,NaN,20,280,-1,6.0883423795548,0,0,0,0.914573699934408,-15,61,65,94,40,25,133,15,59,,,,,,15,29,0.0964285714285714,18.9770656176672
2,76,7,0,56,-32,65,1.04900930006988,45,0.199973990575277,0.399956357332745,1,NaN,20,280,9,15.6915058361743,0,0,0,1.04900930006988,3,-12,27,58,160,37,146,24,56,,,,,,24,35,0.0964285714285714,18.9770656176672
2,77,4,0,84,-77,61,1.36470150016248,147,0.199978845193982,0.399952627660241,1,NaN,20,280,-23,-20.6023802140433,0,0,0,1.36470150016248,-28,-25,74,36,7,84,,,,,,,,,7,49,0.0964285714285714,18.9770656176672
2,78,8,0,127,54,109,3.19869669992477,86,0.199977500917157,0.399954486056231,1,NaN,20,280,-18,-16.9370831080602,0,0,0,3.19869669992477,-43,-71,132,110,62,133,7,38,1,127,,,,,1,83,0.0964285714285714,18.9770656176672
2,79,7,0,151,66,153,1.44891220005229,112,0.199977297568694,0.399955372292815,1,NaN,20,280,2,5.54153703728402,0,0,0,1.44891220005229,-24,-67,173,109,151,170,113,37,151,,,,,,37,90,0.0964285714285714,18.9770656176672
2,80,5,0,145,22,154,1.17480789986439,71,0.199976911116391,0.399954875418916,1,NaN,20,280,9,6.46188380055728,0,0,0,1.17480789986439,6,-18,122,115,119,167,145,,,,,,,,167,16,0.0964285714285714,18.9770656176672
2,81,5,0,125,-66,129,0.931797600118443,160,0.199978685472161,0.399952935613692,1,NaN,20,280,4,-2.14381697449272,0,0,0,0.931797600118443,20,26,47,167,69,59,125,,,,,,,,59,86,0.0964285714285714,18.9770656176672
2,82,5,0,116,44,114,1.20633229985833,141,0.199980929773301,0.399953168304637,1,NaN,20,280,-2,-0.120603129601516,0,0,0,1.20633229985833,9,29,176,87,8,160,116,,,,,,,,160,35,0.0964285714285714,18.9770656176672
2,83,11,0,116,-32,131,1.031151099829,36,0.199977025347338,0.399953340222551,1,NaN,20,280,15,16.8793968703985,0,0,0,1.031151099829,0,9,1,130,171,124,106,120,156,37,174,84,116,,84,32,0.0964285714285714,18.9770656176672
2,84,7,0,131,-79,141,1.08962209988385,92,0.199978094547987,0.399955492100811,1,NaN,20,280,10,3.43454227441753,0,0,0,1.08962209988385,-15,-15,155,169,28,153,169,52,131,,,,,,52,64,0.0964285714285714,18.9770656176672
2,85,8,0,0,47,0,1.37387030012906,63,0.199978145363275,0.399955682718428,1,NaN,20,280,0,-2.64018664098932,0,0,0,1.37387030012906,-49,-64,162,83,126,97,144,131,47,0,,,,,47,84,0.0964285714285714,18.9770656176672
2,86,5,0,122,-46,124,1.38165129977278,10,0.199977924348786,0.399956002505496,1,NaN,20,280,2,2.12498852179201,0,0,0,1.38165129977278,58,9,12,36,20,76,122,,,,,,,,76,76,0.0964285714285714,18.9770656176672
2,87,8,0,28,-21,30,1.21574690006673,64,0.199976669246098,0.399955600063549,1,NaN,20,280,2,6.73507003498184,0,0,0,1.21574690006673,-86,-28,177,14,56,24,112,168,7,28,,,,,7,65,0.0964285714285714,18.9770656176672
2,88,6,0,73,76,18,1.34052599989809,84,0.199975954097075,0.399956852042427,1,NaN,20,280,-55,NaN,0,1,0,NaN,-45,49,73,61,41,21,149,73,,,,,,,149,59,0.0964285714285714,18.9770656176672
2,89,8,0,117,-70,114,1.25715869991109,19,0.199975317547796,0.399957811081549,1,NaN,20,280,-3,-6.78719548178811,1,0,0,1.25715869991109,-44,-89,4,155,39,163,74,94,47,117,,,,,47,26,0.0964285714285714,18.9770656176672
2,90,8,0,84,32,73,1.11544349999167,13,0.199977229785873,0.399954989785329,1,NaN,20,280,-11,-8.60238021404329,0,0,0,1.11544349999167,33,-11,108,19,178,93,97,168,116,84,,,,,116,1,0.0964285714285714,18.9770656176672
2,91,9,0,136,-43,123,1.18955509993248,60,0.199977028106029,0.399961862790709,1,NaN,20,280,-13,-10.4963112180085,0,0,0,1.18955509993248,-52,-19,99,162,42,32,67,2,114,93,136,,,,93,9,0.0964285714285714,18.9770656176672
2,92,6,0,120,75,126,0.957206699997187,67,0.199976472843749,0.399954564326132,1,NaN,20,280,6,6.12004767158383,0,0,0,0.957206699997187,16,-36,164,154,103,128,15,120,,,,,,,15,59,0.0964285714285714,18.9770656176672
2,93,8,0,160,22,155,0.565611699828878,155,0.199979220924433,0.399953671789262,1,NaN,20,280,-5,3.35086887339145,0,0,0,0.565611699828878,-40,-24,90,99,49,107,96,119,2,160,,,,,2,62,0.0964285714285714,18.9770656176672
2,94,7,0,134,-5,131,0.982239400036633,62,0.199974442865433,0.399956350048472,1,NaN,20,280,-3,-1.42948435032799,0,0,0,0.982239400036633,26,-14,56,64,71,65,58,129,134,,,,,,129,31,0.0964285714285714,18.9770656176672
2,95,4,0,50,-33,62,1.43142259982415,128,0.19997794093797,0.39995746203931,1,NaN,20,280,12,18.7659168170407,0,0,0,1.43142259982415,84,-70,17,106,17,50,,,,,,,,,17,63,0.0964285714285714,18.9770656176672
2,96,4,0,82,46,78,0.93228660011664,61,0.199976641859394,0.399956540379208,1,NaN,20,280,-4,-4.31864589165947,0,0,0,0.93228660011664,-32,52,55,132,128,82,,,,,,,,,128,78,0.0964285714285714,18.9770656176672
2,97,6,0,18,-29,45,1.207219599979,23,0.199977130745538,0.399954813881777,1,NaN,20,280,27,19.9143349554941,0,0,0,1.207219599979,64,32,39,27,149,168,169,18,,,,,,,169,87,0.0964285714285714,18.9770656176672
2,98,6,0,44,-84,49,1.87268579984084,48,0.199977384530939,0.399953667268467,1,NaN,20,280,5,15.3572939218898,0,0,0,1.87268579984084,-26,38,38,167,169,47,140,44,,,,,,,140,58,0.0964285714285714,18.9770656176672
2,99,9,0,19,-24,21,0.907165100099519,7,0.199979240152364,0.399952224093593,1,NaN,20,280,2,-4.76731155860774,0,0,0,0.907165100099519,25,-1,55,92,90,111,97,82,160,175,19,,,,175,49,0.0964285714285714,18.9770656176672
2,100,4,0,168,-82,92,1.72258589998819,15,0.199977327487431,0.39995689218631,1,NaN,20,280,-76,NaN,0,1,0,NaN,31,56,143,95,86,168,,,,,,,,,86,67,0.0964285714285714,18.9770656176672
2,101,5,0,105,-27,104,1.23972159996629,175,0.199979567714036,0.399950630078092,1,NaN,20,280,-1,1.36554727142442,1,0,0,1.23972159996629,63,-86,177,165,31,78,105,,,,,,,,78,90,0.0964285714285714,18.9770656176672
2,102,5,0,18,90,24,1.03136749984697,85,0.199976248992607,0.399956490425393,1,NaN,20,280,6,-1.08566504450589,0,0,0,1.03136749984697,87,-30,40,170,44,108,18,,,,,,,,108,3,0.0964285714285714,18.9770656176672
2,103,5,0,2,-70,13,1.36545750009827,166,0.199979176698253,0.399954116204754,1,NaN,20,280,11,8.11642105728469,0,0,0,1.36545750009827,16,-77,11,91,80,112,2,,,,,,,,112,86,0.0964285714285714,18.9770656176672
2,104,5,0,36,-18,33,1.16564560006373,143,0.19997849566862,0.399954941961914,1,NaN,20,280,-3,-1.5677425102656,0,0,0,1.16564560006373,-34,-18,83,47,1,18,36,,,,,,,,18,16,0.0964285714285714,18.9770656176672
2,105,10,0,5,83,12,1.43083740002476,17,0.19997838891577,0.399954363657162,1,NaN,20,280,7,2.49719226256524,0,0,0,1.43083740002476,31,-3,96,162,78,69,141,141,127,129,88,5,,,88,52,0.0964285714285714,18.9770656176672
2,106,9,0,175,20,170,1.36490669986233,146,0.199978282338836,0.399956746880586,1,NaN,20,280,-5,1.36462202351241,0,0,0,1.36490669986233,10,41,99,12,130,66,96,85,89,15,175,,,,15,10,0.0964285714285714,18.9770656176672
2,107,10,0,56,-82,37,1.22383450018242,165,0.199976278957911,0.399955919594504,1,NaN,20,280,-19,-12.3084941638257,0,0,0,1.22383450018242,-61,-51,129,112,46,106,143,6,20,137,154,56,,,154,21,0.0964285714285714,18.9770656176672
2,108,7,0,30,-49,14,1.84785960009322,96,0.199977334987904,0.399957600116198,1,NaN,20,280,-16,-12.9807797857011,0,0,0,1.84785960009322,26,-35,79,141,88,16,167,161,30,,,,,,161,75,0.0964285714285714,18.9770656176672
2,109,10,0,43,-18,47,1.35719490004703,124,0.199977970961481,0.399955166014843,1,NaN,20,280,4,8.13069871237185,0,0,0,1.35719490004703,-13,13,176,133,61,133,46,132,44,48,25,43,,,25,5,0.0964285714285714,18.9770656176672
2,110,5,0,4,-79,13,2.04046459984966,108,0.199976745480672,0.399956195009872,1,NaN,20,280,9,7.96677710145442,0,0,0,2.04046459984966,39,26,128,144,156,105,4,,,,,,,,105,62,0.0964285714285714,18.9770656176672
2,111,8,0,33,-50,24,1.69876629998907,159,0.199976106407121,0.399955943837995,1,NaN,20,280,-9,-10.6415033307228,0,0,0,1.69876629998907,-29,10,7,51,92,101,69,30,163,33,,,,,163,21,0.0964285714285714,18.9770656176672
2,112,5,0,45,-53,24,1.14808030007407,176,0.199979047803208,0.399953936645761,1,NaN,20,280,-21,-12.521640648911,0,0,0,1.14808030007407,-12,-41,77,119,26,172,45,,,,,,,,172,41,0.0964285714285714,18.9770656176672
2,113,10,0,68,-6,56,1.13215949991718,119,0.19997660247609,0.399955494352616,1,NaN,20,280,-12,-10.5910396969703,0,0,0,1.13215949991718,-23,-35,93,153,100,50,43,18,57,38,62,68,,,62,17,0.0964285714285714,18.9770656176672
2,114,9,0,126,-20,147,1.20720970002003,82,0.199973283232086,0.399954938873028,1,NaN,20,280,21,17.4485411610881,0,0,0,1.20720970002003,-58,-81,89,9,74,119,5,45,179,106,126,,,,106,38,0.0964285714285714,18.9770656176672
2,115,8,0,19,61,16,0.581577299861237,16,0.199975555588026,0.399956069595646,1,NaN,20,280,-3,-9.76731155860774,0,0,0,0.581577299861237,-73,49,175,158,152,36,148,42,80,19,,,,,80,46,0.0964285714285714,18.9770656176672
2,116,6,0,5,-4,2,1.87246070010588,87,0.199977527333734,0.399955808999948,1,NaN,20,280,-3,-7.50280773743476,0,0,0,1.87246070010588,14,-59,49,96,161,143,1,5,,,,,,,1,18,0.0964285714285714,18.9770656176672
2,117,7,0,97,60,105,1.22385289985687,37,0.1999797398291,0.399953181689073,1,NaN,20,280,8,5.07732671676871,0,0,0,1.22385289985687,88,-78,148,77,159,159,124,157,97,,,,,,157,28,0.0964285714285714,18.9770656176672
2,118,12,0,85,-60,88,2.84015600010753,95,0.199977416777983,0.399954698824634,1,NaN,20,280,3,11.1612229115179,0,0,0,2.84015600010753,12,-80,31,38,13,10,144,69,140,106,67,21,25,85,25,72,0.0964285714285714,18.9770656176672
2,119,7,0,166,29,9,4.4319533999078,48,0.199978349297973,0.399952537346897,1,NaN,20,280,23,18.640023124432,0,0,0,4.4319533999078,-81,-69,172,89,175,134,167,15,166,,,,,,15,70,0.0964285714285714,18.9770656176672
2,120,4,0,104,-75,113,1.0742220999673,121,0.199975380732212,0.399957018904388,1,NaN,20,280,9,7.8375846461275,0,0,0,1.0742220999673,62,-19,76,110,29,104,,,,,,,,,29,43,0.0964285714285714,18.9770656176672
2,121,10,0,85,-68,82,1.2487796000205,8,0.199980705254711,0.399953267816454,1,NaN,20,280,-3,5.16122291151788,0,0,0,1.2487796000205,19,81,98,32,148,28,13,1,135,118,17,85,,,17,87,0.0964285714285714,18.9770656176672
2,122,6,0,10,-49,7,0.890703100012615,16,0.199974084583422,0.399954924980799,1,NaN,20,280,-3,-6.85455671551482,0,0,0,0.890703100012615,75,-86,133,11,158,171,141,10,,,,,,,141,56,0.0964285714285714,18.9770656176672
2,123,6,0,163,12,179,0.774800699902698,179,0.199975185057459,0.399953331798315,1,NaN,20,280,16,17.304718308348,0,0,0,0.774800699902698,27,-78,128,29,175,176,175,163,,,,,,,175,15,0.0964285714285714,18.9770656176672
2,124,8,0,173,36,151,6.10519289993681,83,0.199977029493311,0.399954963213531,1,NaN,20,280,-22,-10.1470070309731,0,0,0,6.10519289993681,-10,17,172,2,33,68,45,50,29,173,,,,,29,46,0.0964285714285714,18.9770656176672
2,125,12,0,138,13,128,1.45705450000241,179,0.199978712189477,0.399953635719915,1,NaN,20,280,-10,-2.90786861863722,0,0,0,1.45705450000241,35,25,27,145,143,35,68,23,164,72,72,85,151,138,151,22,0.0964285714285714,18.9770656176672
2,126,8,0,167,-86,172,2.98209930001758,133,0.199977688957006,0.399953659682069,1,NaN,20,280,5,2.80464702692988,0,0,0,2.98209930001758,-29,6,32,44,69,32,138,36,81,167,,,,,81,57,0.0964285714285714,18.9770656176672
2,127,4,0,3,-5,177,3.80580139998347,92,0.199975055817049,0.399952945765108,1,NaN,20,280,-6,-2.64833822086456,0,0,0,3.80580139998347,-16,-45,87,67,178,3,,,,,,,,,178,11,0.0964285714285714,18.9770656176672
2,128,6,0,59,48,61,1.04889350011945,27,0.199980857394015,0.399949619507728,1,NaN,20,280,2,9.0883423795548,0,0,0,1.04889350011945,-56,-72,172,63,94,174,107,59,,,,,,,107,76,0.0964285714285714,18.9770656176672
2,129,7,0,46,-10,55,1.68149210000411,161,0.199976992826643,0.399954279452296,1,NaN,20,280,9,11.2490416918857,0,0,0,1.68149210000411,13,-43,74,145,96,157,67,36,46,,,,,,36,23,0.0964285714285714,18.9770656176672
2,130,5,0,24,53,50,1.18968460010365,21,0.1999760937877,0.399953888915479,1,NaN,20,280,26,23.1448709219344,0,0,0,1.18968460010365,22,35,104,5,24,77,24,,,,,,,,77,31,0.0964285714285714,18.9770656176672
2,131,9,0,85,-20,81,0.933136099949479,102,0.199974035611376,0.399956571636721,1,NaN,20,280,-4,4.16122291151788,0,0,0,0.933136099949479,-61,-39,178,49,145,160,140,76,25,65,85,,,,65,41,0.0964285714285714,18.9770656176672
2,132,8,0,117,-29,99,1.44784840010107,162,0.199979777768021,0.399955453001894,1,NaN,20,280,-18,-21.7871954817881,0,0,0,1.44784840010107,-32,87,7,50,73,154,6,132,88,117,,,,,88,3,0.0964285714285714,18.9770656176672
2,133,8,0,24,-46,29,1.23222639993764,39,0.199979334574891,0.399952806619694,1,NaN,20,280,5,2.1448709219344,0,0,0,1.23222639993764,-87,61,59,108,124,43,150,74,158,24,,,,,158,41,0.0964285714285714,18.9770656176672
2,134,6,0,148,43,141,1.3808083999902,68,0.199975077916558,0.399950991811541,1,NaN,20,280,-7,-5.99488843206639,0,0,0,1.3808083999902,56,-31,13,34,162,70,11,148,,,,,,,11,13,0.0964285714285714,18.9770656176672
2,135,6,0,119,3,109,1.14062119997106,10,0.199977411461684,0.399955257113713,1,NaN,20,280,-10,-5.95657347538828,0,0,0,1.14062119997106,29,85,10,21,39,121,122,119,,,,,,,122,26,0.0964285714285714,18.9770656176672
2,136,11,0,116,48,112,1.89870000001974,24,0.199976512802426,0.399955588879741,1,NaN,20,280,-4,-2.12060312960152,0,0,0,1.89870000001974,3,32,75,90,177,56,159,166,179,81,7,164,116,,164,45,0.0964285714285714,18.9770656176672
2,137,11,0,2,74,9,1.93181249988265,86,0.199977416862649,0.399955398911102,1,NaN,20,280,7,4.11642105728469,0,0,0,1.93181249988265,-66,-63,11,160,144,30,129,94,7,54,144,76,2,,76,40,0.0964285714285714,18.9770656176672
2,138,8,0,118,-69,129,1.59053059993312,56,0.199977143551223,0.399956864130218,1,NaN,20,280,11,12.8384539504637,0,0,0,1.59053059993312,64,-2,27,72,5,144,121,129,49,118,,,,,49,47,0.0964285714285714,18.9770656176672
2,139,8,0,88,-6,88,1.23948240000755,154,0.19997632704326,0.399954313703347,1,NaN,20,280,0,5.23140026832648,0,0,0,1.23948240000755,30,-86,80,77,148,73,3,19,82,88,,,,,82,36,0.0964285714285714,18.9770656176672
2,140,12,0,52,-66,52,1.49755989992991,175,0.19997589282381,0.399956742689634,1,NaN,20,280,0,4.00841179284168,0,0,0,1.49755989992991,36,66,97,80,37,138,136,178,152,51,110,35,166,52,166,78,0.0964285714285714,18.9770656176672
3,141,4,1,133,8,125,1.37297520018183,21,0.199975462455768,0.399955180648249,1,NaN,20,280,-8,NaN,0,0,1,1.37297520018183,-81,-45,21,162,141,133,,,,,,,,,141,89,0.0964285714285714,18.9770656176672
3,142,11,1,94,-21,100,1.07256100000814,121,0.199975984467363,0.399954855336215,1,NaN,20,280,6,3.08625201102261,0,0,0,1.07256100000814,39,-42,106,85,148,93,36,54,132,122,124,73,94,,73,60,0.0964285714285714,18.9770656176672
3,143,10,1,95,-46,116,0.939603900071234,31,0.199975326727144,0.399955536285415,1,NaN,20,280,21,10.7312738388652,0,0,0,0.939603900071234,-1,38,160,125,2,130,72,47,16,34,49,95,,,49,45,0.0964285714285714,18.9770656176672
3,144,12,1,116,-10,110,1.14884499995969,2,0.199974816835796,0.399957831037076,1,NaN,20,280,-6,-4.12060312960152,0,0,0,1.14884499995969,-21,-22,124,10,42,138,33,164,1,87,19,22,106,116,106,11,0.0964285714285714,18.9770656176672
3,145,11,1,113,-11,111,1.11424700007774,60,0.199977256463502,0.399960502241315,1,NaN,20,280,-2,-2.45143123098222,0,0,0,1.11424700007774,3,-18,129,8,39,126,106,8,106,69,46,102,113,,102,14,0.0964285714285714,18.9770656176672
3,146,5,1,90,-25,123,1.28938229987398,41,0.199978499347344,0.399954514484853,1,NaN,20,280,33,NaN,0,1,0,NaN,23,26,91,84,144,65,90,,,,,,,,65,48,0.0964285714285714,18.9770656176672
3,147,5,1,76,29,68,1.02394120022655,36,0.19997690487653,0.399954360956326,1,NaN,20,280,-8,-11.4534192612321,0,0,0,1.02394120022655,14,37,134,77,117,105,76,,,,,,,,105,15,0.0964285714285714,18.9770656176672
3,148,9,1,89,-27,99,1.12232120009139,38,0.199976335046813,0.399954144791183,1,NaN,20,280,10,9.96297594351044,0,0,0,1.12232120009139,-13,1,138,38,103,151,90,68,155,62,89,,,,62,14,0.0964285714285714,18.9770656176672
3,149,11,1,86,40,85,0.990468800067902,1,0.199975774708119,0.399956761118533,1,NaN,20,280,-1,8.91483006230989,0,0,0,0.990468800067902,3,-10,55,15,45,132,46,129,174,39,93,126,86,,126,37,0.0964285714285714,18.9770656176672
3,150,9,1,75,-24,64,1.49864160013385,56,0.199975870239238,0.399955338953684,1,NaN,20,280,-11,-7.77205309832761,0,0,0,1.49864160013385,11,14,73,5,42,7,142,115,81,51,75,,,,51,35,0.0964285714285714,18.9770656176672
3,151,10,1,85,-76,83,2.89865270000882,54,0.199978666123934,0.399953165557235,1,NaN,20,280,-2,6.16122291151788,0,0,0,2.89865270000882,-10,1,118,145,94,122,58,89,163,51,9,85,,,9,66,0.0964285714285714,18.9770656176672
3,152,10,1,93,-32,93,1.46543370001018,114,0.199976764735766,0.399955378170125,1,NaN,20,280,0,-5.58556208176306,0,0,0,1.46543370001018,-8,-18,100,158,2,81,38,94,152,116,61,93,,,61,24,0.0964285714285714,18.9770656176672
3,153,5,1,85,-69,76,1.0232432000339,162,0.199968134006485,0.399953913735226,1,NaN,20,280,-9,-0.838777088482119,0,0,0,1.0232432000339,8,0,5,97,79,16,85,,,,,,,,16,77,0.0964285714285714,18.9770656176672
3,154,6,1,94,-7,93,1.24051950010471,110,0.199978066647115,0.399956476991065,1,NaN,20,280,-1,-3.91374798897739,0,0,0,1.24051950010471,-9,-1,154,24,160,40,87,94,,,,,,,87,2,0.0964285714285714,18.9770656176672
3,155,6,1,78,15,78,1.21469970000908,23,0.199979173058333,0.399961645637328,1,NaN,20,280,0,1.5716349479386,0,0,0,1.21469970000908,16,7,0,97,40,47,93,78,,,,,,,93,1,0.0964285714285714,18.9770656176672
3,156,8,1,160,-83,159,0.890560500090942,126,0.1999741763575,0.399956995184766,1,NaN,20,280,-1,7.35086887339145,0,0,0,0.890560500090942,-82,-66,38,161,139,64,108,139,77,160,,,,,77,1,0.0964285714285714,18.9770656176672
3,157,6,1,92,39,94,1.20728500001132,102,0.199978382598298,0.399953409447335,1,NaN,20,280,2,-3.1807513747231,0,0,0,1.20728500001132,68,-14,0,18,69,160,131,92,,,,,,,131,29,0.0964285714285714,18.9770656176672
3,158,4,1,8,-5,154,1.30562529992312,49,0.19997470988892,0.399954932334367,1,NaN,20,280,-34,NaN,0,1,0,NaN,84,-28,46,157,3,8,,,,,,,,,3,89,0.0964285714285714,18.9770656176672
3,159,4,1,7,83,18,1.21547370008193,94,0.199977521959227,0.399953958869446,1,NaN,20,280,11,6.5367367546595,0,0,0,1.21547370008193,1,85,160,12,90,7,,,,,,,,,90,82,0.0964285714285714,18.9770656176672
3,160,4,1,139,62,129,1.04892869992182,147,0.199980244855396,0.39995337772416,1,NaN,20,280,-10,-7.65986188472513,0,0,0,1.04892869992182,48,49,87,117,21,139,,,,,,,,,21,14,0.0964285714285714,18.9770656176672
3,161,7,1,152,20,159,1.09070419985801,102,0.199977276880028,0.399954378272274,1,NaN,20,280,7,11.9503171300173,0,0,0,1.09070419985801,-13,35,89,97,150,131,147,172,152,,,,,,172,33,0.0964285714285714,18.9770656176672
3,162,10,1,168,48,157,0.923827199963853,16,0.199977491190657,0.399954099138267,1,NaN,20,280,-11,-3.79648351856096,0,0,0,0.923827199963853,-16,-29,158,128,168,3,3,114,113,152,36,168,,,36,64,0.0964285714285714,18.9770656176672
3,163,8,1,95,-43,108,0.75721720000729,128,0.199979642871767,0.399953060608823,1,NaN,20,280,13,2.73127383886518,0,0,0,0.75721720000729,73,57,130,104,102,142,162,51,52,95,,,,,52,64,0.0964285714285714,18.9770656176672
3,164,10,1,18,-12,19,0.915528699988499,65,0.199978641071357,0.399955594213679,1,NaN,20,280,1,-6.08566504450589,0,0,0,0.915528699988499,77,-30,56,123,117,129,103,159,162,79,6,18,,,6,89,0.0964285714285714,18.9770656176672
3,165,10,1,29,13,17,0.923953999998048,49,0.199979562661611,0.39995273060631,1,NaN,20,280,-12,-11.5354479896546,0,0,0,0.923953999998048,-11,66,56,119,60,47,51,28,79,125,42,29,,,42,24,0.0964285714285714,18.9770656176672
3,166,10,1,29,-32,41,2.52453939989209,114,0.199977744068019,0.399955168087035,1,NaN,20,280,12,12.4645520103454,0,0,0,2.52453939989209,0,-11,4,142,165,126,67,100,161,117,177,29,,,177,32,0.0964285714285714,18.9770656176672
3,167,8,1,78,31,55,1.08095109998249,91,0.19997506972868,0.399956522189314,1,NaN,20,280,-23,-21.4283650520614,0,0,0,1.08095109998249,-49,-49,169,71,6,136,65,100,109,78,,,,,109,80,0.0964285714285714,18.9770656176672
3,168,7,1,2,73,22,1.28119799983688,62,0.19997626849051,0.399956892776702,1,NaN,20,280,20,17.1164210572847,0,0,0,1.28119799983688,76,27,53,148,169,11,65,75,2,,,,,,75,3,0.0964285714285714,18.9770656176672
3,169,11,1,103,-13,103,1.05724120000377,22,0.19997695192102,0.399954236641696,1,NaN,20,280,0,-1.04795524171434,0,0,0,1.05724120000377,79,-25,113,8,67,151,161,123,171,13,36,90,103,,90,88,0.0964285714285714,18.9770656176672
3,170,12,1,53,-19,53,1.39869850012474,116,0.199979432994345,0.399953524465673,1,NaN,20,280,0,5.3971350949542,0,0,0,1.39869850012474,50,-51,78,77,179,31,135,120,51,85,75,140,34,53,34,69,0.0964285714285714,18.9770656176672
3,171,6,1,30,-20,144,1.64785369997844,86,0.199972959700972,0.399956179006646,1,NaN,20,280,-66,NaN,0,1,0,NaN,23,73,97,122,45,110,10,30,,,,,,,10,43,0.0964285714285714,18.9770656176672
3,172,12,1,56,-14,43,0.932096200063825,140,0.19997801319308,0.399952267917494,1,NaN,20,280,-13,-6.30849416382571,1,0,0,0.932096200063825,-26,-3,111,16,93,52,17,53,147,150,11,59,42,56,42,12,0.0964285714285714,18.9770656176672
3,173,7,1,66,81,64,1.25732490001246,44,0.199975741395195,0.399955761020205,1,NaN,20,280,-2,5.95574990788209,0,0,0,1.25732490001246,-10,-36,109,11,66,26,120,147,66,,,,,,147,89,0.0964285714285714,18.9770656176672
3,174,12,1,87,44,78,0.739307099953294,107,0.19997585832607,0.399955428981533,1,NaN,20,280,-9,-6.28733455015138,0,0,0,0.739307099953294,-21,-31,65,154,125,146,168,105,82,34,135,6,131,87,131,65,0.0964285714285714,18.9770656176672
3,175,4,1,14,-2,35,1.48992419987917,8,0.199974233401008,0.399956400040537,1,NaN,20,280,21,19.7741513846104,0,0,0,1.48992419987917,73,52,125,16,12,14,,,,,,,,,12,75,0.0964285714285714,18.9770656176672
3,176,11,1,26,59,10,1.2653963000048,130,0.19997681313279,0.39995406280187,1,NaN,20,280,-16,-17.1525996268942,0,0,0,1.2653963000048,-12,61,59,122,3,123,92,61,13,28,5,85,26,,85,71,0.0964285714285714,18.9770656176672
3,177,6,1,122,-59,122,0.832301100017503,147,0.199977934360504,0.399957313745593,1,NaN,20,280,0,0.124988521792009,0,0,0,0.832301100017503,84,72,166,90,73,155,63,122,,,,,,,63,37,0.0964285714285714,18.9770656176672
3,178,4,1,135,62,145,1.34882630011998,123,0.199978808290325,0.399952683597803,1,NaN,20,280,10,18.2656893468033,0,0,0,1.34882630011998,-13,71,16,33,17,135,,,,,,,,,17,75,0.0964285714285714,18.9770656176672
3,179,10,1,131,65,139,0.930908199865371,54,0.199979515606537,0.399954270548187,1,NaN,20,280,8,1.43454227441753,0,0,0,0.930908199865371,4,-9,82,177,111,148,113,75,5,59,16,131,,,16,61,0.0964285714285714,18.9770656176672
3,180,7,1,63,56,44,1.14824900007807,74,0.199973997427151,0.399956930428743,1,NaN,20,280,-19,-14.2489016294967,0,0,0,1.14824900007807,68,72,127,56,5,158,104,119,63,,,,,,119,12,0.0964285714285714,18.9770656176672
3,181,11,1,75,54,55,1.10715410020202,165,0.199978601166301,0.399953041860664,1,NaN,20,280,-20,-16.7720530983276,0,0,0,1.10715410020202,-12,56,42,176,11,104,36,28,135,68,112,129,75,,129,66,0.0964285714285714,18.9770656176672
3,182,8,1,92,-19,98,0.940587400225922,78,0.199984002596466,0.399948760168627,1,NaN,20,280,6,0.819248625276902,0,0,0,0.940587400225922,-17,-29,159,158,179,80,177,55,73,92,,,,,73,2,0.0964285714285714,18.9770656176672
3,183,10,1,118,-76,131,0.847660699859262,62,0.199978083651513,0.399955298611894,1,NaN,20,280,13,14.8384539504637,0,0,0,0.847660699859262,-26,-43,25,24,16,45,70,169,123,29,42,118,,,42,50,0.0964285714285714,18.9770656176672
3,184,10,1,16,31,21,1.12388990004547,136,0.199979962478392,0.399952482897788,1,NaN,20,280,5,0.673187068695899,0,0,0,1.12388990004547,-78,76,155,34,166,40,50,35,22,2,47,16,,,47,71,0.0964285714285714,18.9770656176672
3,185,5,1,91,34,72,0.965405199909583,4,0.199975710082799,0.399957132060081,1,NaN,20,280,-19,-18.7833978066823,0,0,0,0.965405199909583,-75,27,88,146,88,125,91,,,,,,,,125,71,0.0964285714285714,18.9770656176672
3,186,7,1,63,60,113,1.7319360000547,30,0.199976468525295,0.399955376117889,1,NaN,20,280,50,NaN,0,1,0,NaN,28,-47,70,159,153,115,3,123,63,,,,,,123,32,0.0964285714285714,18.9770656176672
3,187,10,1,61,19,52,1.2404807000421,146,0.199976583081298,0.399956589844078,1,NaN,20,280,-9,-1.46536553223034,1,0,0,1.2404807000421,2,30,104,133,36,31,153,63,17,65,80,61,,,80,17,0.0964285714285714,18.9770656176672
3,188,8,1,26,71,22,0.532205500174314,21,0.199979054334108,0.399954590800917,1,NaN,20,280,-4,-5.15259962689421,0,0,0,0.532205500174314,35,37,151,72,89,8,105,132,97,26,,,,,97,36,0.0964285714285714,18.9770656176672
3,189,8,1,110,-47,122,1.6322182000149,30,0.199978629214456,0.399954901571618,1,NaN,20,280,12,4.09605688594466,0,0,0,1.6322182000149,-84,-49,68,35,79,58,68,155,63,110,,,,,63,37,0.0964285714285714,18.9770656176672
3,190,10,1,113,-33,120,0.823759200051427,153,0.199977535428479,0.39995368567761,1,NaN,20,280,7,6.54856876901778,0,0,0,0.823759200051427,-3,-87,153,127,97,122,91,87,63,176,80,113,,,80,30,0.0964285714285714,18.9770656176672
3,191,5,1,126,-9,120,0.923819100018591,81,0.199979082355276,0.399953551124781,1,NaN,20,280,-6,-9.55145883891189,0,0,0,0.923819100018591,-13,-16,77,72,74,117,126,,,,,,,,117,4,0.0964285714285714,18.9770656176672
3,192,10,1,90,17,97,0.782145499950275,123,0.199975868174806,0.399956593499519,1,NaN,20,280,7,2.07568606933273,0,0,0,0.782145499950275,36,23,87,108,162,31,108,45,70,100,107,90,,,107,19,0.0964285714285714,18.9770656176672
3,193,4,1,94,73,93,1.0480538001284,116,0.199977691983804,0.399954787630122,1,NaN,20,280,-1,-3.91374798897739,0,0,0,1.0480538001284,-4,32,175,46,167,94,,,,,,,,,167,77,0.0964285714285714,18.9770656176672
3,194,12,1,103,-17,100,0.73218910000287,100,0.199977232085075,0.399955064970224,1,NaN,20,280,-3,-4.04795524171434,0,0,0,0.73218910000287,-9,-13,45,114,76,26,135,109,10,39,179,84,86,103,86,8,0.0964285714285714,18.9770656176672
3,195,4,1,104,-13,109,1.53096620016731,85,0.199977336102165,0.399953251471743,1,NaN,20,280,5,3.8375846461275,0,0,0,1.53096620016731,-1,-10,90,170,91,104,,,,,,,,,91,12,0.0964285714285714,18.9770656176672
3,196,6,1,88,-29,85,1.38954099989496,175,0.199975356226787,0.399955062040438,1,NaN,20,280,-3,2.23140026832648,0,0,0,1.38954099989496,16,15,51,65,119,145,59,88,,,,,,,59,45,0.0964285714285714,18.9770656176672
3,197,5,1,83,-19,97,1.10716980020516,76,0.199977067764848,0.39995488896966,1,NaN,20,280,14,19.831198374533,0,0,0,1.10716980020516,5,21,43,75,106,64,83,,,,,,,,64,24,0.0964285714285714,18.9770656176672
3,198,6,1,84,47,75,0.856050899950787,95,0.199976920499466,0.399957708432339,1,NaN,20,280,-9,-6.60238021404329,0,0,0,0.856050899950787,-1,4,168,21,17,158,131,84,,,,,,,131,48,0.0964285714285714,18.9770656176672
3,199,10,1,147,-74,147,1.06503179995343,110,0.199977451236919,0.399954136274755,1,NaN,20,280,0,-2.08722706771108,0,0,0,1.06503179995343,-63,-64,69,29,65,137,173,25,88,57,73,147,,,73,11,0.0964285714285714,18.9770656176672
3,200,6,1,150,-48,153,0.898033499950543,116,0.199978544648426,0.399952983250841,1,NaN,20,280,3,1.26312001932613,0,0,0,0.898033499950543,-3,-66,107,43,93,124,102,150,,,,,,,102,45,0.0964285714285714,18.9770656176672
3,201,4,1,34,24,34,1.05726089980453,10,0.199976530391723,0.399956129549537,1,NaN,20,280,0,-3.26200433231808,0,0,0,1.05726089980453,-64,-67,46,158,58,34,,,,,,,,,58,88,0.0964285714285714,18.9770656176672
3,202,4,1,69,20,55,0.59837400005199,55,0.199979747645557,0.399953093321528,1,NaN,20,280,-14,-5.75302090287624,0,0,0,0.59837400005199,-35,81,37,153,89,69,,,,,,,,,89,55,0.0964285714285714,18.9770656176672
3,203,11,1,135,-8,132,0.90716170007363,59,0.199974521931091,0.399957130684263,1,NaN,20,280,-3,5.26568934680326,0,0,0,0.90716170007363,-66,79,69,168,26,47,109,14,134,159,172,127,135,,127,58,0.0964285714285714,18.9770656176672
3,204,11,1,41,15,107,1.63119479990564,16,0.199976088119332,0.399955024434762,1,NaN,20,280,66,NaN,0,1,0,NaN,-86,28,47,135,2,30,173,94,36,109,22,56,41,,56,79,0.0964285714285714,18.9770656176672
3,205,12,1,88,-22,79,1.24040060001425,118,0.199977609833392,0.39995622751303,1,NaN,20,280,-9,-3.76859973167352,1,0,0,1.24040060001425,-47,47,168,106,41,16,11,161,52,134,129,101,66,88,66,25,0.0964285714285714,18.9770656176672
3,206,4,1,63,-65,8,1.30728229996748,156,0.199974844639655,0.399953899905086,1,NaN,20,280,-55,NaN,0,1,0,NaN,25,-22,175,66,178,63,,,,,,,,,178,90,0.0964285714285714,18.9770656176672
3,207,6,1,71,-85,56,0.540524200070649,56,0.199977040446053,0.399956462128709,1,NaN,20,280,-15,-8.04125983659204,1,0,0,0.540524200070649,-8,17,29,47,85,110,166,71,,,,,,,166,77,0.0964285714285714,18.9770656176672
3,208,8,1,16,58,12,1.16449929983355,163,0.199977450363804,0.399955057539046,1,NaN,20,280,-4,-8.3268129313041,0,0,0,1.16449929983355,55,47,80,62,140,84,126,107,74,16,,,,,74,3,0.0964285714285714,18.9770656176672
3,209,5,1,12,41,10,0.657321200007573,10,0.199978036666289,0.399956472031772,1,NaN,20,280,-2,-4.69146895014829,0,0,0,0.657321200007573,4,59,165,143,133,53,12,,,,,,,,53,37,0.0964285714285714,18.9770656176672
3,210,9,1,76,-29,109,1.00710399984382,78,0.199978259728394,0.39995380397886,1,NaN,20,280,33,NaN,0,1,0,NaN,-64,-60,106,37,177,1,74,139,40,47,76,,,,47,35,0.0964285714285714,18.9770656176672
4,211,12,0,109,26,120,1.45707929995842,5,0.199976517139779,0.399956891449013,1,NaN,20,280,11,NaN,0,0,1,1.45707929995842,-33,83,16,175,73,15,79,160,90,76,72,32,135,109,135,59,0.0964285714285714,18.9770656176672
4,212,11,0,2,31,1,1.74039829988033,143,0.199977433605289,0.399955499515107,1,NaN,20,280,-1,-3.88357894271531,0,0,0,1.74039829988033,-73,74,116,116,59,160,122,85,143,125,13,33,2,,33,76,0.0964285714285714,18.9770656176672
4,213,8,0,158,-78,144,0.482371800113469,144,0.199978719698265,0.399955683737062,1,NaN,20,280,-14,-6.61090102546358,0,0,0,0.482371800113469,24,-49,101,1,170,55,165,103,80,158,,,,,80,78,0.0964285714285714,18.9770656176672
4,214,11,0,107,-80,103,1.59743839991279,30,0.199978600615974,0.399953108132732,1,NaN,20,280,-4,-6.50389453657448,0,0,0,1.59743839991279,51,75,61,22,170,20,78,2,130,117,125,27,107,,27,49,0.0964285714285714,18.9770656176672
4,215,4,0,136,55,31,1.48236379981972,118,0.199978430347983,0.399954197637271,1,NaN,20,280,75,NaN,0,1,0,NaN,-29,22,50,35,11,136,,,,,,,,,11,84,0.0964285714285714,18.9770656176672
4,216,5,0,155,-54,137,3.20574770006351,162,0.199974704906344,0.399969423096627,1,NaN,20,280,-18,-5.02579019861132,1,0,0,3.20574770006351,-19,-48,108,50,96,101,155,,,,,,,,101,35,0.0964285714285714,18.9770656176672
4,217,8,0,143,-26,159,1.39880060008727,120,0.199977795156883,0.399953181011369,1,NaN,20,280,16,23.286465650253,0,0,0,1.39880060008727,12,-7,172,45,88,32,94,15,117,143,,,,,117,38,0.0964285714285714,18.9770656176672
4,218,9,0,88,5,75,1.2891937000677,0,0.199979345909216,0.399954377052685,1,NaN,20,280,-13,-7.76859973167352,0,0,0,1.2891937000677,55,67,174,158,107,42,149,6,39,93,88,,,,93,50,0.0964285714285714,18.9770656176672
4,219,9,0,99,11,100,1.22392539982684,158,0.199977573886928,0.39995434295593,1,NaN,20,280,1,5.74134943874749,0,0,0,1.22392539982684,-11,44,135,164,25,162,176,172,126,110,99,,,,110,22,0.0964285714285714,18.9770656176672
4,220,7,0,143,-19,108,1.23907429981045,173,0.199974906298199,0.399956864205056,1,NaN,20,280,-35,NaN,0,1,0,NaN,-44,-55,78,138,42,23,110,124,143,,,,,,124,25,0.0964285714285714,18.9770656176672
4,221,10,0,122,55,104,2.01541460002773,135,0.199978178157471,0.399954551365227,1,NaN,20,280,-18,-17.875011478208,0,0,0,2.01541460002773,21,-23,4,40,100,154,119,116,84,11,177,122,,,177,34,0.0964285714285714,18.9770656176672
4,222,12,0,62,57,50,0.640461999922991,50,0.199978892148162,0.399952945609887,1,NaN,20,280,-12,-11.084177163619,0,0,0,0.640461999922991,60,81,61,173,179,17,44,109,105,134,149,130,119,62,119,3,0.0964285714285714,18.9770656176672
4,223,12,0,88,-37,97,1.32374999998137,72,0.199977788783144,0.399954943762471,1,NaN,20,280,9,14.2314002683265,0,0,0,1.32374999998137,-26,34,111,64,73,38,49,134,25,12,61,27,51,88,51,11,0.0964285714285714,18.9770656176672
4,224,7,0,21,-67,70,3.3810048000887,168,0.199979492130556,0.399954470839085,1,NaN,20,280,49,NaN,0,1,0,NaN,67,41,112,112,147,57,118,134,21,,,,,,134,46,0.0964285714285714,18.9770656176672
4,225,5,0,91,59,84,1.13963680015877,78,0.199978098785505,0.399953584838659,1,NaN,20,280,-7,-6.78339780668229,1,0,0,1.13963680015877,-70,-3,45,15,153,150,91,,,,,,,,150,51,0.0964285714285714,18.9770656176672
4,226,5,0,140,-75,138,0.907405799953267,148,0.19997782013379,0.399955547926947,1,NaN,20,280,-2,6.70705578035264,0,0,0,0.907405799953267,-49,61,85,62,149,65,140,,,,,,,,65,26,0.0964285714285714,18.9770656176672
4,227,6,0,132,-43,125,0.873623999999836,115,0.199977840452145,0.399953877204098,1,NaN,20,280,-7,-5.70368124901405,0,0,0,0.873623999999836,8,-41,54,0,162,129,89,132,,,,,,,89,51,0.0964285714285714,18.9770656176672
4,228,10,0,38,69,36,1.33225949993357,6,0.199976675654761,0.399956396152265,1,NaN,20,280,-2,-3.0748353178024,0,0,0,1.33225949993357,-86,-78,145,143,12,22,163,42,64,90,107,38,,,107,25,0.0964285714285714,18.9770656176672
4,229,6,0,74,75,77,1.4406447999645,141,0.199977982866888,0.39995463588275,1,NaN,20,280,3,7.16292655487095,0,0,0,1.4406447999645,-36,58,173,80,10,172,149,74,,,,,,,149,69,0.0964285714285714,18.9770656176672
4,230,11,0,176,55,160,0.948766800109297,6,0.199978903168812,0.399955141315745,1,NaN,20,280,-16,-5.56327106016003,0,0,0,0.948766800109297,78,42,63,173,1,22,171,18,57,36,160,51,176,,51,23,0.0964285714285714,18.9770656176672
4,231,12,0,103,-65,104,1.75586739997379,161,0.199977745340827,0.399955976540999,1,NaN,20,280,1,-0.0479552417143407,0,0,0,1.75586739997379,73,-29,149,30,23,96,178,147,163,122,86,141,38,103,38,42,0.0964285714285714,18.9770656176672
4,232,9,0,179,0,12,0.882105699973181,145,0.19997618554367,0.399954744123129,1,NaN,20,280,13,11.1074849727498,0,0,0,0.882105699973181,-76,-3,8,164,92,152,121,24,18,179,179,,,,179,76,0.0964285714285714,18.9770656176672
4,233,5,0,94,79,152,0.848850999958813,152,0.199977474519983,0.399952475633472,1,NaN,20,280,58,NaN,0,1,0,NaN,85,9,10,109,58,173,94,,,,,,,,173,6,0.0964285714285714,18.9770656176672
4,234,8,0,146,-42,153,0.948856300208718,90,0.199977554031648,0.399955141328974,1,NaN,20,280,7,9.64671565231316,1,0,0,0.948856300208718,-52,33,114,58,10,78,117,101,104,146,,,,,104,10,0.0964285714285714,18.9770656176672
4,235,11,0,177,-61,177,1.32322430005297,9,0.199977456634356,0.399954031898894,1,NaN,20,280,0,2.43256512509827,0,0,0,1.32322430005297,-31,-83,117,149,111,27,60,117,110,79,1,116,177,,116,30,0.0964285714285714,18.9770656176672
4,236,8,0,179,-3,174,1.49740880005993,78,0.199976079718908,0.399955860571936,1,NaN,20,280,-5,-6.89251502725021,0,0,0,1.49740880005993,-2,-33,79,9,18,84,165,14,176,179,,,,,176,1,0.0964285714285714,18.9770656176672
4,237,6,0,30,82,25,1.8058808001224,82,0.199978886366201,0.399955121489863,1,NaN,20,280,-5,-1.98077978570107,0,0,0,1.8058808001224,-31,-33,113,86,32,115,112,30,,,,,,,112,67,0.0964285714285714,18.9770656176672
4,238,5,0,22,-74,22,1.05718990019523,73,0.199978566821665,0.399955182056874,1,NaN,20,280,0,-1.03696605945819,0,0,0,1.05718990019523,8,-23,76,151,108,128,22,,,,,,,,128,82,0.0964285714285714,18.9770656176672
4,239,9,0,95,73,93,1.82364050019532,56,0.199977335416608,0.399954111755101,1,NaN,20,280,-2,-12.2687261611348,0,0,0,1.82364050019532,-73,-65,26,176,79,13,35,117,79,168,95,,,,168,34,0.0964285714285714,18.9770656176672
4,240,4,0,171,77,90,1.44059030013159,11,0.199977066542488,0.39995655574603,1,NaN,20,280,-81,NaN,0,1,0,NaN,-76,31,42,170,68,171,,,,,,,,,68,27,0.0964285714285714,18.9770656176672
4,241,8,0,74,30,71,0.840570000000298,87,0.199976912088459,0.399955262255389,1,NaN,20,280,-3,1.16292655487095,1,0,0,0.840570000000298,-83,21,39,102,63,61,72,46,104,74,,,,,104,67,0.0964285714285714,18.9770656176672
4,242,9,0,65,66,61,1.6571171998512,23,0.199974995080589,0.399954993407139,1,NaN,20,280,-4,-1.02292156153634,0,0,0,1.6571171998512,9,-74,152,47,52,27,125,4,3,131,65,,,,131,57,0.0964285714285714,18.9770656176672
4,243,9,0,49,-86,57,1.48111460008658,107,0.199976997786305,0.399956993603458,1,NaN,20,280,8,8.6136760155408,0,0,0,1.48111460008658,16,25,177,99,170,65,4,74,179,143,49,,,,143,78,0.0964285714285714,18.9770656176672
4,244,11,0,126,-23,130,1.04831129987724,38,0.199975986795669,0.399955871282145,1,NaN,20,280,4,0.448541161088111,0,0,0,1.04831129987724,-77,-61,96,50,169,32,39,100,87,83,69,103,126,,103,54,0.0964285714285714,18.9770656176672
4,245,4,0,120,58,118,1.79882580018602,30,0.199976758449338,0.399953483778518,1,NaN,20,280,-2,-1.87995232841617,0,0,0,1.79882580018602,6,-71,90,25,178,120,,,,,,,,,178,52,0.0964285714285714,18.9770656176672
4,246,8,0,168,-35,161,0.732239499920979,161,0.199976491916459,0.399954043823527,1,NaN,20,280,-7,0.203516481439044,0,0,0,0.732239499920979,-48,-42,131,156,178,71,11,66,133,168,,,,,133,13,0.0964285714285714,18.9770656176672
4,247,6,0,109,82,152,0.682469999883324,152,0.199973750199812,0.399957396361666,1,NaN,20,280,43,NaN,0,1,0,NaN,59,11,5,105,73,5,11,109,,,,,,,11,23,0.0964285714285714,18.9770656176672
4,248,8,0,144,58,24,0.948901400202885,56,0.199981458252296,0.399954052118119,1,NaN,20,280,60,NaN,0,1,0,NaN,-35,24,145,163,53,21,165,20,22,144,,,,,22,87,0.0964285714285714,18.9770656176672
4,249,12,0,157,-40,163,0.997860400006175,46,0.199975917154613,0.39995678285292,1,NaN,20,280,6,21.8824660400436,1,0,0,0.997860400006175,-13,-48,59,139,167,116,58,3,104,175,147,141,117,157,117,27,0.0964285714285714,18.9770656176672
4,250,4,0,18,-46,22,1.12358010001481,116,0.199979261204135,0.399953670625109,1,NaN,20,280,4,-3.08566504450589,0,0,0,1.12358010001481,-41,-54,120,100,152,18,,,,,,,,,152,5,0.0964285714285714,18.9770656176672
4,251,11,0,150,86,147,1.5974964001216,79,0.199976253344423,0.399955521083691,1,NaN,20,280,-3,-4.73687998067387,0,0,0,1.5974964001216,48,7,41,112,140,60,164,110,148,46,73,56,150,,56,38,0.0964285714285714,18.9770656176672
4,252,5,0,165,73,168,1.18965939991176,112,0.199981874134392,0.399950848938897,1,NaN,20,280,3,1.97112406424622,0,0,0,1.18965939991176,-15,33,121,118,66,58,165,,,,,,,,58,88,0.0964285714285714,18.9770656176672
4,253,11,0,173,28,170,1.34892169991508,98,0.19997657507404,0.399956705747172,1,NaN,20,280,-3,8.85299296902685,0,0,0,1.34892169991508,-8,-23,123,171,173,39,144,69,50,127,73,21,173,,21,36,0.0964285714285714,18.9770656176672
4,254,8,0,50,66,45,1.19047729996964,88,0.199977429379942,0.39995389804244,1,NaN,20,280,-5,1.76591681704071,0,0,0,1.19047729996964,-57,-65,46,70,33,61,91,101,116,50,,,,,116,57,0.0964285714285714,18.9770656176672
4,255,5,0,76,-83,117,1.52388069988228,18,0.199976131599396,0.399957042885944,1,NaN,20,280,41,NaN,0,1,0,NaN,-26,-83,131,125,11,173,76,,,,,,,,173,57,0.0964285714285714,18.9770656176672
4,256,8,0,71,-75,61,1.2976790999528,140,0.199977053649491,0.399954913300462,1,NaN,20,280,-10,-3.04125983659204,0,0,0,1.2976790999528,5,-21,90,61,135,148,65,127,176,71,,,,,176,80,0.0964285714285714,18.9770656176672
4,257,12,0,87,32,69,1.0487345000729,149,0.199977150458532,0.399954520068907,1,NaN,20,280,-18,-15.2873345501514,0,0,0,1.0487345000729,-16,-11,29,36,138,31,57,109,82,130,156,45,119,87,119,48,0.0964285714285714,18.9770656176672
4,258,7,0,27,6,29,1.03210250008851,104,0.199975720673267,0.399954797400694,1,NaN,20,280,2,-0.000272812840957704,0,0,0,1.03210250008851,60,44,113,57,150,7,157,33,27,,,,,,33,54,0.0964285714285714,18.9770656176672
4,259,10,0,32,-33,33,0.49034299980849,33,0.19997563760262,0.39995672062505,1,NaN,20,280,1,-3.18245660331155,0,0,0,0.49034299980849,-5,55,148,82,71,88,107,1,109,158,179,32,,,179,28,0.0964285714285714,18.9770656176672
4,260,11,0,120,-78,121,0.882169099990278,67,0.199977233243937,0.399954852436415,1,NaN,20,280,1,1.12004767158383,0,0,0,0.882169099990278,-88,87,113,105,10,113,107,47,52,93,46,42,120,,42,10,0.0964285714285714,18.9770656176672
4,261,10,0,161,-64,155,1.2404751998838,85,0.199978788010776,0.399954494857229,1,NaN,20,280,-6,-4.78156540977029,0,0,0,1.2404751998838,-41,51,6,30,0,161,64,98,156,44,97,161,,,97,23,0.0964285714285714,18.9770656176672
4,262,10,0,119,-56,108,1.18216600012966,15,0.199977952288464,0.399955185083672,1,NaN,20,280,-11,-6.95657347538828,0,0,0,1.18216600012966,42,1,17,55,46,39,95,149,137,97,63,119,,,63,82,0.0964285714285714,18.9770656176672
4,263,10,0,44,52,33,0.865604399936274,116,0.199978291313164,0.399954085238278,1,NaN,20,280,-11,-0.642706078110155,0,0,0,0.865604399936274,75,-63,50,94,117,45,63,76,31,172,96,44,,,96,23,0.0964285714285714,18.9770656176672
4,264,9,0,16,0,14,1.59044050006196,136,0.199977205471239,0.399953618645668,1,NaN,20,280,-2,-6.3268129313041,0,0,0,1.59044050006196,28,-77,68,75,72,49,113,71,172,16,16,,,,16,28,0.0964285714285714,18.9770656176672
4,265,10,0,88,-7,82,1.16435629990883,2,0.19997742511332,0.399954358767718,1,NaN,20,280,-6,-0.768599731673522,0,0,0,1.16435629990883,-72,-44,167,140,6,45,66,113,150,82,81,88,,,81,65,0.0964285714285714,18.9770656176672
4,266,7,0,137,-54,133,0.915596199920401,136,0.199974254804796,0.399956456784691,1,NaN,20,280,-4,-0.317817506903559,0,0,0,0.915596199920401,-49,59,130,150,157,26,179,83,137,,,,,,83,5,0.0964285714285714,18.9770656176672
4,267,9,0,80,-4,74,1.0404745999258,90,0.199978422968545,0.399953520003085,1,NaN,20,280,-6,-1.49970659889686,0,0,0,1.0404745999258,57,8,66,130,148,28,22,5,123,76,80,,,,76,61,0.0964285714285714,18.9770656176672
4,268,5,0,105,64,119,0.881291700061411,71,0.199977026414126,0.39995378954336,1,NaN,20,280,14,16.3655472714244,0,0,0,0.881291700061411,-25,32,159,136,74,169,105,,,,,,,,169,89,0.0964285714285714,18.9770656176672
4,269,10,0,33,-85,38,1.42382659995928,121,0.199977069231682,0.399955829977989,1,NaN,20,280,5,3.35849666927719,0,0,0,1.42382659995928,72,47,43,32,89,138,91,104,138,179,128,33,,,128,23,0.0964285714285714,18.9770656176672
4,270,6,0,73,-74,60,0.948884200071916,22,0.199977133073844,0.399954011314549,1,NaN,20,280,-13,-9.21658966341155,0,0,0,0.948884200071916,-40,32,44,94,139,36,179,73,,,,,,,179,34,0.0964285714285714,18.9770656176672
4,271,12,0,174,74,163,0.573767599882558,12,0.199977129193333,0.399954793412083,1,NaN,20,280,-11,-0.258117339639868,0,0,0,0.573767599882558,79,39,70,56,123,29,81,160,67,65,9,24,68,174,68,5,0.0964285714285714,18.9770656176672
4,272,9,0,30,68,18,1.29781449981965,97,0.199975493182946,0.399954969736023,1,NaN,20,280,-12,-8.98077978570107,0,0,0,1.29781449981965,-36,43,171,20,124,29,99,129,124,98,30,,,,98,76,0.0964285714285714,18.9770656176672
4,273,4,0,140,21,162,1.97380260005593,112,0.199975182185881,0.399954294611234,1,NaN,20,280,22,NaN,0,1,0,NaN,70,34,136,97,161,140,,,,,,,,,161,49,0.0964285714285714,18.9770656176672
4,274,5,0,134,-13,142,0.998534500133246,9,0.199977029208094,0.399957883032039,1,NaN,20,280,8,9.57051564967201,0,0,0,0.998534500133246,6,76,148,98,155,121,134,,,,,,,,121,19,0.0964285714285714,18.9770656176672
4,275,7,0,18,58,3,0.823062999872491,112,0.199978080345318,0.399955008711134,1,NaN,20,280,-15,-22.0856650445059,0,0,0,0.823062999872491,-64,-58,155,115,155,159,94,76,18,,,,,,76,58,0.0964285714285714,18.9770656176672
4,276,12,0,25,-39,12,0.757271399954334,53,0.199979395489208,0.399955174148393,1,NaN,20,280,-13,-10.076140518966,0,0,0,0.757271399954334,-7,-71,46,35,60,128,108,137,97,151,1,11,166,25,166,32,0.0964285714285714,18.9770656176672
4,277,11,0,10,58,43,1.11548430006951,172,0.199976052919572,0.399955075848001,1,NaN,20,280,33,NaN,0,1,0,NaN,15,8,18,10,5,11,4,90,62,166,131,68,10,,68,43,0.0964285714285714,18.9770656176672
4,278,11,0,84,-30,79,1.08115580002777,35,0.19997490671548,0.39995606163178,1,NaN,20,280,-5,-2.60238021404329,0,0,0,1.08115580002777,-74,-59,145,121,80,143,165,115,90,79,4,54,84,,54,44,0.0964285714285714,18.9770656176672
4,279,7,0,15,35,23,1.30640419991687,30,0.199977732828951,0.399955826478877,1,NaN,20,280,8,4.63528040362123,0,0,0,1.30640419991687,69,-5,158,44,120,157,151,50,15,,,,,,50,34,0.0964285714285714,18.9770656176672
4,280,7,0,124,44,95,1.34083339991048,174,0.199974678556568,0.39995610195079,1,NaN,20,280,-29,NaN,0,1,0,NaN,71,-40,7,139,74,59,171,168,124,,,,,,168,27,0.0964285714285714,18.9770656176672
1,1,7,0,83,66,81,2.17397520004306,151,0.199978407788356,0.39995500119403,2,1,27,280,-2,-2.94843841466293,NaN,0,0,2.17397520004306,NaN,NaN,149,174,65,77,128,149,83,,,,,,149,NaN,0.0928571428571429,16.7195623746862
1,2,6,0,133,-86,134,1.32378199999221,33,0.199979411670938,0.399954144144431,2,NaN,27,280,1,-4.06304397549289,0,0,0,1.32378199999221,-50,NaN,54,90,87,77,47,133,,,,,,,47,36,0.0928571428571429,16.7195623746862
1,3,9,0,120,52,120,1.0905378999887,3,0.199977067971809,0.399956137873232,2,NaN,27,280,0,-13.4044974702929,0,0,0,1.0905378999887,13,-37,156,37,72,102,35,115,113,172,120,,,,172,39,0.0928571428571429,16.7195623746862
1,4,5,0,31,-55,25,1.16548219998367,159,0.199980351491831,0.399954022630118,2,NaN,27,280,-6,2.73859145049895,0,0,0,1.16548219998367,89,-78,88,45,160,156,31,,,,,,,,156,36,0.0928571428571429,16.7195623746862
1,5,12,0,20,4,17,0.831528400070965,119,0.199976590200095,0.399956007458968,2,NaN,27,280,-3,-2.04912254499104,0,0,0,0.831528400070965,11,-80,128,36,31,153,65,83,161,93,15,111,24,20,24,7,0.0928571428571429,16.7195623746862
1,6,4,0,33,-76,31,1.84877939999569,17,0.199979253811762,0.399953098036349,2,NaN,27,280,-2,6.88110985240289,0,0,0,1.84877939999569,-13,-2,40,38,137,33,,,,,,,,,137,63,0.0928571428571429,16.7195623746862
1,7,6,0,169,51,169,1.86498740001116,84,0.199966125675322,0.39995651335145,2,NaN,27,280,0,-1.25406416026413,0,0,0,1.86498740001116,44,31,46,22,25,169,40,169,,,,,,,40,7,0.0928571428571429,16.7195623746862
1,8,5,0,137,0,146,0.982069400022738,54,0.199978366703726,0.399955788766965,2,NaN,27,280,9,0.946904262470846,0,0,0,0.982069400022738,32,76,126,178,24,137,137,,,,,,,,137,32,0.0928571428571429,16.7195623746862
1,9,8,0,49,-7,52,1.31424810003955,32,0.199979013443226,0.399955993081676,2,NaN,27,280,3,11.6797834439057,0,0,0,1.31424810003955,88,-60,160,4,92,109,92,8,42,49,,,,,42,85,0.0928571428571429,16.7195623746862
1,10,4,0,93,-18,112,1.2398075000383,75,0.199981900164858,0.399950944498414,2,NaN,27,280,19,13.3557173686623,0,0,0,1.2398075000383,-44,44,47,112,75,93,,,,,,,,,75,26,0.0928571428571429,16.7195623746862
1,11,9,0,1,-59,178,2.27353210002184,35,0.199976948141638,0.39995576787947,2,NaN,27,280,-3,-6.60049869193712,0,0,0,2.27353210002184,-88,48,1,53,139,97,114,0,45,122,1,,,,122,29,0.0928571428571429,16.7195623746862
1,12,11,0,59,-68,55,2.09044149995316,111,0.199979252626442,0.399956028379331,2,NaN,27,280,-4,-2.85180508405568,0,0,0,2.09044149995316,-58,34,5,177,37,106,52,19,67,176,7,171,59,,171,10,0.0928571428571429,16.7195623746862
1,13,6,0,165,-75,166,1.49924749997444,167,0.199979316190972,0.39995385533742,2,NaN,27,280,1,-4.07844939359283,0,0,0,1.49924749997444,74,16,161,102,127,168,90,165,,,,,,,90,31,0.0928571428571429,16.7195623746862
1,14,6,0,170,63,169,1.2309275000589,137,0.199977400014177,0.399954743974376,2,NaN,27,280,-1,2.15637921817228,0,0,0,1.2309275000589,-5,69,49,50,161,90,53,170,,,,,,,53,68,0.0928571428571429,16.7195623746862
1,15,4,0,115,-60,128,1.17244689993095,14,0.199976870411774,0.399953143874882,2,NaN,27,280,13,5.26756651027732,0,0,0,1.17244689993095,55,50,127,70,55,115,,,,,,,,,55,65,0.0928571428571429,16.7195623746862
1,16,12,0,17,29,5,1.70606879994739,45,0.199976808954185,0.399955517757917,2,NaN,27,280,-12,-7.23622954942507,0,0,0,1.70606879994739,-82,-27,150,47,83,160,12,138,167,3,80,108,46,17,46,69,0.0928571428571429,16.7195623746862
1,17,4,0,167,-58,136,1.1823392000515,161,0.199977863871027,0.399952257634141,2,NaN,27,280,-31,NaN,0,1,0,NaN,30,-52,70,87,109,167,,,,,,,,,109,88,0.0928571428571429,16.7195623746862
1,18,7,0,25,7,20,2.28178870002739,13,0.199978521043834,0.399956788435312,2,NaN,27,280,-5,5.71311056792653,0,0,0,2.28178870002739,-38,-8,56,63,77,136,45,32,25,,,,,,32,45,0.0928571428571429,16.7195623746862
1,19,4,0,29,25,39,0.981113900081255,143,0.199980730278185,0.399954371707281,2,NaN,27,280,10,12.1883356957187,0,0,0,0.981113900081255,-4,-42,80,13,54,29,,,,,,,,,54,29,0.0928571428571429,16.7195623746862
1,20,4,0,142,26,147,1.21592109999619,107,0.199974184099119,0.39995855386951,2,NaN,27,280,5,1.18636684571452,0,0,0,1.21592109999619,67,63,159,158,168,142,,,,,,,,,168,41,0.0928571428571429,16.7195623746862
1,21,10,0,6,47,8,0.98204159992747,107,0.199979766504839,0.399953600019217,2,NaN,27,280,2,2.21762938324711,0,0,0,0.98204159992747,-44,23,81,124,140,129,160,100,121,9,53,6,,,53,89,0.0928571428571429,16.7195623746862
1,22,5,0,148,-8,156,0.898877599975094,42,0.199976196791977,0.399954790249467,2,NaN,27,280,8,2.40936351157289,0,0,0,0.898877599975094,38,-6,2,156,33,140,148,,,,,,,,140,46,0.0928571428571429,16.7195623746862
1,23,9,0,90,87,101,1.4738323999336,157,0.199979642121535,0.399955536212979,2,NaN,27,280,11,5.63809224816477,0,0,0,1.4738323999336,58,-84,161,90,62,171,27,72,107,177,90,,,,177,29,0.0928571428571429,16.7195623746862
1,24,8,0,141,68,138,0.956215800018981,23,0.199975846146117,0.39995671773795,2,NaN,27,280,-3,-12.9661271378332,0,0,0,0.956215800018981,-51,7,21,64,46,132,7,163,29,141,,,,,29,61,0.0928571428571429,16.7195623746862
1,25,11,0,67,15,62,1.93193940003403,50,0.199977207526734,0.399953612528572,2,NaN,27,280,-5,-2.02915568331993,0,0,0,1.93193940003403,74,23,131,104,33,94,26,5,59,84,59,82,67,,82,59,0.0928571428571429,16.7195623746862
1,26,5,0,6,-82,10,1.56545690004714,100,0.199979762523435,0.399953680112958,2,NaN,27,280,4,4.21762938324711,0,0,0,1.56545690004714,61,-45,177,21,24,104,6,,,,,,,,104,37,0.0928571428571429,16.7195623746862
1,27,12,0,147,-39,170,2.50783760007471,24,0.199977307221464,0.399955539469374,2,NaN,27,280,23,13.0032524274533,0,0,0,2.50783760007471,39,-80,74,148,70,21,19,103,73,35,56,121,108,147,108,78,0.0928571428571429,16.7195623746862
1,28,6,0,128,3,152,1.88084439991508,116,0.19997887138743,0.399956210574601,2,NaN,27,280,24,9.94462877581493,0,0,0,1.88084439991508,19,58,134,126,49,106,131,128,,,,,,,131,16,0.0928571428571429,16.7195623746862
1,29,5,0,81,42,109,1.62318160000723,19,0.199974608491175,0.399956288468093,2,NaN,27,280,28,NaN,0,1,0,NaN,47,66,116,22,138,123,81,,,,,,,,123,5,0.0928571428571429,16.7195623746862
1,30,8,0,139,51,139,2.22368039994035,78,0.199978317716159,0.399954592678114,2,NaN,27,280,0,-3.90731147172137,0,0,0,2.22368039994035,-58,-11,28,67,122,46,48,175,10,139,,,,,10,71,0.0928571428571429,16.7195623746862
1,31,12,0,66,-54,70,2.36525230004918,78,0.199979431054089,0.399954582719753,2,NaN,27,280,4,12.3811065287563,0,0,0,2.36525230004918,73,15,125,121,53,110,112,39,80,105,102,19,12,66,12,53,0.0928571428571429,16.7195623746862
1,32,4,0,158,70,165,1.19766369997524,32,0.199976014671847,0.399959394766483,2,NaN,27,280,7,-1.76108113480507,0,0,0,1.19766369997524,88,-19,23,41,48,158,,,,,,,,,48,18,0.0928571428571429,16.7195623746862
1,33,7,0,7,-75,8,1.36549990007188,39,0.199976970408378,0.399955616249437,2,NaN,27,280,1,6.17778831412069,0,0,0,1.36549990007188,-29,59,102,50,124,45,24,112,7,,,,,,112,46,0.0928571428571429,16.7195623746862
1,34,6,0,171,-24,167,1.43902809999418,138,0.199975297320634,0.399956424895208,2,NaN,27,280,-4,-3.28227438510995,0,0,0,1.43902809999418,16,-13,16,83,92,113,147,171,,,,,,,147,40,0.0928571428571429,16.7195623746862
1,35,6,0,115,55,112,1.13112919998821,116,0.199977627489716,0.399956074465687,2,NaN,27,280,-3,-10.7324334897227,0,0,0,1.13112919998821,56,72,45,5,152,95,170,115,,,,,,,170,1,0.0928571428571429,16.7195623746862
1,36,9,0,72,-78,67,1.24842040007934,105,0.199980264633066,0.39995278751788,2,NaN,27,280,-5,4.45130422704575,0,0,0,1.24842040007934,43,-81,106,112,150,85,98,54,174,174,72,,,,174,59,0.0928571428571429,16.7195623746862
1,37,12,0,33,-79,23,1.18190119997598,170,0.199977455718908,0.399955479796821,2,NaN,27,280,-10,-1.11889014759711,0,0,0,1.18190119997598,39,82,139,21,130,65,121,24,148,90,119,120,134,33,134,62,0.0928571428571429,16.7195623746862
1,38,7,0,44,-32,58,1.38062910002191,59,0.199979950890078,0.39995398073058,2,NaN,27,280,14,NaN,0,1,0,NaN,-11,28,106,43,24,105,25,12,44,,,,,,12,21,0.0928571428571429,16.7195623746862
1,39,12,0,148,78,151,0.915395900025032,38,0.199977208928127,0.39995571426698,2,NaN,27,280,3,-2.59063648842711,0,0,0,0.915395900025032,76,65,83,14,167,136,47,23,157,126,88,90,46,148,46,2,0.0928571428571429,16.7195623746862
1,40,8,0,83,-23,113,1.81664239999373,171,0.1999759094615,0.399956775276223,2,NaN,27,280,30,NaN,0,1,0,NaN,65,-39,113,147,24,111,20,100,60,83,,,,,60,88,0.0928571428571429,16.7195623746862
1,41,5,0,5,47,10,0.607161800027825,100,0.199979520053603,0.399952855496667,2,NaN,27,280,5,3.32554076736336,0,0,0,0.607161800027825,78,-37,109,88,159,52,5,,,,,,,,52,31,0.0928571428571429,16.7195623746862
1,42,8,0,2,-13,7,1.31472490006126,26,0.199978815100621,0.399953415893833,2,NaN,27,280,5,0.641557347164292,0,0,0,1.31472490006126,3,81,130,169,100,44,163,89,169,2,,,,,169,16,0.0928571428571429,16.7195623746862
1,43,7,0,43,16,45,2.3487407999346,79,0.199974962061138,0.399959181668237,2,NaN,27,280,2,8.78594430465459,0,0,0,2.3487407999346,-41,-38,179,83,139,3,4,59,43,,,,,,59,57,0.0928571428571429,16.7195623746862
1,44,4,0,90,87,123,1.93230590003077,138,0.199977214069804,0.399954884138424,2,NaN,27,280,33,NaN,0,1,0,NaN,-47,-88,144,79,177,90,,,,,,,,,177,46,0.0928571428571429,16.7195623746862
1,45,6,0,63,76,58,2.09820790006779,174,0.199978564303213,0.39995480128952,2,NaN,27,280,-5,1.22628486967288,0,0,0,2.09820790006779,27,-20,52,124,155,27,139,63,,,,,,,139,49,0.0928571428571429,16.7195623746862
1,46,6,0,47,-43,53,3.4735930999741,139,0.199976371581821,0.399955176011038,2,NaN,27,280,6,12.3176428890731,0,0,0,3.4735930999741,16,43,18,146,179,165,4,47,,,,,,,4,59,0.0928571428571429,16.7195623746862
1,47,6,0,76,-69,68,2.1907311999239,93,0.199977918974279,0.399953944783192,2,NaN,27,280,-8,-1.4990251429407,0,0,0,2.1907311999239,-29,-13,101,132,71,74,7,76,,,,,,,7,40,0.0928571428571429,16.7195623746862
1,48,8,0,66,75,69,2.87242329993751,38,0.199975942727178,0.399958178822999,2,NaN,27,280,3,11.3811065287563,0,0,0,2.87242329993751,10,-19,31,98,73,61,147,132,141,66,,,,,141,65,0.0928571428571429,16.7195623746862
1,49,5,0,85,27,61,2.22316170006525,142,0.199977708165534,0.399955508788116,2,NaN,27,280,-24,-17.2663180977936,0,0,0,2.22316170006525,-19,-9,98,90,136,112,85,,,,,,,,112,46,0.0928571428571429,16.7195623746862
1,50,9,0,131,57,133,3.67376789997797,9,0.199977020590773,0.399953523767181,2,NaN,27,280,2,-10.595982088141,0,0,0,3.67376789997797,-46,-65,117,64,92,5,27,10,127,8,131,,,,8,77,0.0928571428571429,16.7195623746862
1,51,11,0,158,-50,151,2.45579359994736,111,0.199978288442997,0.39995634784414,2,NaN,27,280,-7,-15.7610811348051,0,0,0,2.45579359994736,-27,-73,86,22,177,176,53,32,178,108,89,108,158,,108,23,0.0928571428571429,16.7195623746862
1,52,6,0,61,77,36,3.17362490005326,2,0.199977055133786,0.399957589805126,2,NaN,27,280,-25,-13.1148888301601,0,0,0,3.17362490005326,-83,70,179,7,157,95,138,61,,,,,,,138,20,0.0928571428571429,16.7195623746862
1,53,10,0,76,-70,59,1.89863980002701,145,0.199977335904259,0.399954398255795,2,NaN,27,280,-17,-10.4990251429407,0,0,0,1.89863980002701,-15,82,59,139,143,119,63,23,124,78,6,76,,,6,55,0.0928571428571429,16.7195623746862
1,54,5,0,33,3,24,2.57382649998181,128,0.199975137296133,0.399955746950582,2,NaN,27,280,-9,-0.118890147597109,0,0,0,2.57382649998181,43,28,46,84,20,36,33,,,,,,,,36,40,0.0928571428571429,16.7195623746862
1,55,11,0,52,77,38,1.74865780002438,149,0.199975591830232,0.399954752298072,2,NaN,27,280,-14,-2.54710337369388,0,0,0,1.74865780002438,-19,24,132,83,70,167,138,177,84,63,126,129,52,,129,84,0.0928571428571429,16.7195623746862
1,56,10,0,132,15,136,2.28919929999392,83,0.199975034361705,0.399955751094967,2,NaN,27,280,4,-2.35776727643673,0,0,0,2.28919929999392,-80,81,16,79,85,151,30,114,118,45,147,132,,,147,85,0.0928571428571429,16.7195623746862
1,57,7,0,98,34,107,1.92375119996723,33,0.199975949645575,0.399958926785205,2,NaN,27,280,9,0.314765910663573,0,0,0,1.92375119996723,34,-46,132,46,52,48,13,132,98,,,,,,132,0,0.0928571428571429,16.7195623746862
1,58,8,0,116,-6,113,1.98149349994492,147,0.199978369797464,0.399953319429187,2,NaN,27,280,-3,-10.3039475335504,0,0,0,1.98149349994492,-18,16,64,14,3,56,166,93,110,116,,,,,110,12,0.0928571428571429,16.7195623746862
1,59,8,0,75,-44,54,2.04167159995995,11,0.19997583697841,0.399954821972642,2,NaN,27,280,-21,-14.8746916246464,0,0,0,2.04167159995995,41,23,47,137,123,3,21,153,31,75,,,,,31,85,0.0928571428571429,16.7195623746862
1,60,6,0,108,58,121,2.48229369998444,120,0.199974795492987,0.399956136612066,2,NaN,27,280,13,0.129198468028194,0,0,0,2.48229369998444,-33,8,148,14,167,53,166,108,,,,,,,166,89,0.0928571428571429,16.7195623746862
1,61,10,0,42,47,44,2.09874479996506,161,0.199978341604583,0.399953993526287,2,NaN,27,280,2,7.61257066952623,0,0,0,2.09874479996506,66,33,169,62,171,70,160,12,124,162,89,42,,,89,19,0.0928571428571429,16.7195623746862
1,62,11,0,145,28,140,2.02388170000631,94,0.199976917811331,0.399954554794187,2,NaN,27,280,-5,-9.7820631077413,0,0,0,2.02388170000631,77,-37,30,46,51,71,145,125,45,53,141,173,145,,173,49,0.0928571428571429,16.7195623746862
1,63,8,0,5,19,6,1.59056939999573,157,0.199978663149523,0.399956233828561,2,NaN,27,280,1,-0.674459232636641,0,0,0,1.59056939999573,-40,37,76,47,43,65,127,145,24,5,,,,,24,59,0.0928571428571429,16.7195623746862
1,64,5,0,134,2,173,1.55661460000556,63,0.199978029751219,0.399956544605084,2,NaN,27,280,39,NaN,0,1,0,NaN,51,11,109,89,60,136,134,,,,,,,,136,49,0.0928571428571429,16.7195623746862
1,65,4,0,112,49,114,1.28226550004911,35,0.199978260003263,0.399953023559647,2,NaN,27,280,2,-4.01917747741146,0,0,0,1.28226550004911,22,73,93,140,161,112,,,,,,,,,161,27,0.0928571428571429,16.7195623746862
1,66,11,0,34,73,27,0.982085999916308,122,0.199975440585562,0.399957600853999,2,NaN,27,280,-7,-0.137284494429058,0,0,0,0.982085999916308,78,-80,93,13,49,114,132,129,57,85,27,107,34,,107,5,0.0928571428571429,16.7195623746862
1,67,4,0,3,-81,179,1.28987139998935,36,0.199978364427807,0.399952790408861,2,NaN,27,280,-4,-1.23477642950993,0,0,0,1.28987139998935,31,-71,8,43,102,3,,,,,,,,,102,68,0.0928571428571429,16.7195623746862
1,68,12,0,82,-81,77,1.9143713999074,47,0.199976558399309,0.399954091369485,2,NaN,27,280,-5,2.71344729131524,0,0,0,1.9143713999074,-79,-48,84,129,148,132,43,104,117,78,45,178,1,82,1,2,0.0928571428571429,16.7195623746862
1,69,5,0,133,-69,137,1.15722579997964,150,0.19997633122839,0.399957275763154,2,NaN,27,280,4,-1.06304397549289,0,0,0,1.15722579997964,-51,50,179,96,77,64,133,,,,,,,,64,18,0.0928571428571429,16.7195623746862
1,70,10,0,98,-42,111,1.35795600002166,125,0.199977056623902,0.399953661754262,2,NaN,27,280,13,4.31476591066357,0,0,0,1.35795600002166,35,-16,82,77,118,139,12,163,20,117,56,98,,,56,77,0.0928571428571429,16.7195623746862
2,71,10,1,51,83,48,1.70821239997167,13,0.199976609332953,0.39995669494383,2,NaN,27,280,-3,NaN,0,0,1,1.70821239997167,47,82,109,26,111,167,28,111,143,37,134,51,,,134,36,0.0928571428571429,16.7195623746862
2,72,11,1,65,3,59,1.79870759998448,8,0.199976683615453,0.399957135711289,2,NaN,27,280,-6,1.94564885136596,0,0,0,1.79870759998448,-14,33,11,124,167,120,97,170,163,144,170,68,65,,68,17,0.0928571428571429,16.7195623746862
2,73,4,1,70,-8,71,1.39055410004221,23,0.199980980658438,0.399947343801614,2,NaN,27,280,1,3.10113975417769,0,0,0,1.39055410004221,-5,-19,27,76,62,70,,,,,,,,,62,3,0.0928571428571429,16.7195623746862
2,74,12,1,149,-74,150,1.38921209995169,84,0.199977026495617,0.399955210887128,2,NaN,27,280,1,1.51588149652651,0,0,0,1.38921209995169,-79,-84,139,121,59,0,110,124,28,50,118,9,75,149,75,5,0.0928571428571429,16.7195623746862
2,75,12,1,166,-47,164,1.04062330001034,37,0.199978619464673,0.399955388633922,2,NaN,27,280,-2,-0.609752550353605,0,0,0,1.04062330001034,-17,84,76,40,102,131,74,121,87,98,67,129,119,166,119,30,0.0928571428571429,16.7195623746862
2,76,7,1,46,-44,46,1.19060689990874,169,0.199976577406882,0.399957240143392,2,NaN,27,280,0,7.24863087709514,0,0,0,1.19060689990874,-60,-77,148,158,105,15,98,2,46,,,,,,2,16,0.0928571428571429,16.7195623746862
2,77,12,1,86,-21,102,1.66579070000444,120,0.199978753943772,0.399952867776544,2,NaN,27,280,16,12.5996611717016,0,0,0,1.66579070000444,-40,80,102,45,4,169,134,6,34,68,102,59,65,86,65,19,0.0928571428571429,16.7195623746862
2,78,8,1,102,21,106,1.42385109991301,40,0.199978688324336,0.399955363405752,2,NaN,27,280,4,0.291886832436858,0,0,0,1.42385109991301,-16,-56,119,173,52,175,163,93,123,102,,,,,123,37,0.0928571428571429,16.7195623746862
2,79,9,1,74,-13,69,1.34045260003768,167,0.199975498628596,0.399956841293412,2,NaN,27,280,-5,-1.74796368459973,0,0,0,1.34045260003768,28,12,44,11,35,131,38,91,70,61,74,,,,61,41,0.0928571428571429,16.7195623746862
2,80,6,1,77,64,83,1.45534350001253,173,0.199978165600138,0.399955757214533,2,NaN,27,280,6,7.92204864952334,0,0,0,1.45534350001253,-3,25,122,106,47,127,141,77,,,,,,,141,67,0.0928571428571429,16.7195623746862
2,81,4,1,55,52,125,1.53152690001298,167,0.199975854397053,0.399958595226053,2,NaN,27,280,70,NaN,0,1,0,NaN,22,19,19,139,107,55,,,,,,,,,107,30,0.0928571428571429,16.7195623746862
2,82,4,1,160,54,156,1.15721010009293,2,0.199983056605561,0.399951960280305,2,NaN,27,280,-4,1.80572318239674,1,0,0,1.15721010009293,75,-83,149,55,34,160,,,,,,,,,34,21,0.0928571428571429,16.7195623746862
2,83,8,1,167,68,163,0.590518299955875,73,0.199978380464017,0.399954943350167,2,NaN,27,280,-4,-3.02299801928253,0,0,0,0.590518299955875,-7,68,62,132,142,28,12,72,55,167,,,,,55,75,0.0928571428571429,16.7195623746862
2,84,7,1,13,-49,10,0.68169650004711,109,0.199975431680546,0.399957242771052,2,NaN,27,280,-3,2.73062938603551,0,0,0,0.68169650004711,-26,-33,91,35,123,130,70,144,13,,,,,,144,23,0.0928571428571429,16.7195623746862
2,85,11,1,177,-2,179,0.598774099955335,89,0.199977788248692,0.399955174547027,2,NaN,27,280,2,4.38852510841152,0,0,0,0.598774099955335,16,-10,1,62,124,165,92,37,158,28,129,175,177,,175,18,0.0928571428571429,16.7195623746862
2,86,7,1,159,-69,163,0.515339900040999,73,0.199976051209628,0.399956847557665,2,NaN,27,280,4,-1.33665405191885,0,0,0,0.515339900040999,18,34,50,124,124,0,121,90,159,,,,,,90,87,0.0928571428571429,16.7195623746862
2,87,10,1,166,46,168,1.80697619996499,149,0.199978472769726,0.399956224951893,2,NaN,27,280,2,3.39024744964639,0,0,0,1.80697619996499,-7,11,98,3,70,151,60,17,56,147,32,166,,,32,53,0.0928571428571429,16.7195623746862
2,88,8,1,176,-43,173,1.58206720009912,172,0.199980006771511,0.399957090427051,2,NaN,27,280,-3,3.21636237814353,0,0,0,1.58206720009912,-10,-17,113,37,82,117,33,86,133,176,,,,,133,33,0.0928571428571429,16.7195623746862
2,89,6,1,8,1,174,0.947612600051798,82,0.199974892816196,0.399957703523493,2,NaN,27,280,-14,-11.6712540128702,0,0,0,0.947612600051798,-12,-22,17,98,17,136,9,8,,,,,,,9,13,0.0928571428571429,16.7195623746862
2,90,11,1,6,-22,10,0.99871960002929,81,0.199977694767189,0.399953925357708,2,NaN,27,280,4,4.21762938324711,0,0,0,0.99871960002929,2,-10,100,110,117,129,93,69,125,88,9,164,6,,164,24,0.0928571428571429,16.7195623746862
2,91,6,1,172,68,173,1.25562910002191,22,0.199979165219702,0.399952797646013,2,NaN,27,280,1,-0.684393061294424,0,0,0,1.25562910002191,14,16,1,123,21,42,60,172,,,,,,,60,54,0.0928571428571429,16.7195623746862
2,92,10,1,145,-34,154,1.35700119996909,67,0.199977855454199,0.399953417328652,2,NaN,27,280,9,4.2179368922587,0,0,0,1.35700119996909,27,41,139,93,154,53,76,45,151,35,111,145,,,111,61,0.0928571428571429,16.7195623746862
2,93,10,1,98,49,114,1.33214319997933,97,0.199976323521696,0.399957798724063,2,NaN,27,280,16,7.31476591066357,0,0,0,1.33214319997933,47,74,160,122,110,153,27,178,53,6,147,98,,,147,2,0.0928571428571429,16.7195623746862
2,94,4,1,88,21,78,1.48096750001423,38,0.199974602903239,0.399956043227576,2,NaN,27,280,-10,-5.01719052582347,0,0,0,1.48096750001423,10,57,18,75,109,88,,,,,,,,,109,11,0.0928571428571429,16.7195623746862
2,95,8,1,96,-67,107,2.04833939997479,53,0.19997588203114,0.399957341243862,2,NaN,27,280,11,6.31904830606692,0,0,0,2.04833939997479,-8,2,87,163,42,169,153,140,29,96,,,,,29,59,0.0928571428571429,16.7195623746862
2,96,5,1,96,-4,102,1.13137739989907,6,0.199969284469262,0.399962773034349,2,NaN,27,280,6,1.31904830606692,0,0,0,1.13137739989907,0,-8,18,59,98,92,96,,,,,,,,92,4,0.0928571428571429,16.7195623746862
2,97,9,1,163,-29,159,1.73267870000564,108,0.19997569547397,0.399955492130377,2,NaN,27,280,-4,0.610828182043554,0,0,0,1.73267870000564,-67,-67,114,33,114,104,168,81,16,134,163,,,,134,38,0.0928571428571429,16.7195623746862
2,98,9,1,6,-23,8,1.22427459992468,2,0.199977448675781,0.399954515974969,2,NaN,27,280,2,2.21762938324711,0,0,0,1.22427459992468,-23,90,142,100,148,98,36,106,43,163,6,,,,163,0,0.0928571428571429,16.7195623746862
2,99,10,1,16,-23,7,1.21577320003416,67,0.199976366874762,0.399954616441391,2,NaN,27,280,-9,-3.98380054942119,0,0,0,1.21577320003416,-10,-33,6,92,94,144,68,104,169,11,173,16,,,173,13,0.0928571428571429,16.7195623746862
2,100,6,1,2,15,6,1.01611590001266,4,0.199977504632746,0.399955573976816,2,NaN,27,280,4,-0.358442652835708,0,0,0,1.01611590001266,14,4,7,109,34,23,17,2,,,,,,,17,1,0.0928571428571429,16.7195623746862
2,101,5,1,69,-25,28,0.974413600051776,160,0.199976308224723,0.399955518404022,2,NaN,27,280,-41,NaN,0,1,0,NaN,-67,-53,24,139,91,44,69,,,,,,,,44,42,0.0928571428571429,16.7195623746862
2,102,10,1,72,77,59,0.946663600043394,69,0.199978834192734,0.399955190788023,2,NaN,27,280,-13,-3.54869577295425,0,0,0,0.946663600043394,-3,-70,146,139,179,106,25,23,161,155,149,72,,,149,80,0.0928571428571429,16.7195623746862
2,103,12,1,84,-56,75,2.49809829995502,10,0.199975619529141,0.39995673034961,2,NaN,27,280,-9,-12.1144529615074,0,0,0,2.49809829995502,-12,-15,138,174,57,163,39,21,135,117,68,11,28,84,28,44,0.0928571428571429,16.7195623746862
2,104,10,1,68,-1,67,1.33212249993812,118,0.199980110570323,0.39995138781378,2,NaN,27,280,-1,6.71887596410298,0,0,0,1.33212249993812,16,4,151,14,120,173,47,133,89,89,67,68,,,67,17,0.0928571428571429,16.7195623746862
2,105,4,1,93,-52,138,1.83166689996142,136,0.199990321212681,0.399941739597125,2,NaN,27,280,45,NaN,0,1,0,NaN,-25,-9,130,167,41,93,,,,,,,,,41,27,0.0928571428571429,16.7195623746862
2,106,10,1,11,75,6,2.18196249997709,48,0.199977254180703,0.39995623503346,2,NaN,27,280,-5,1.00754200821572,0,0,0,2.18196249997709,82,57,137,70,37,178,26,22,60,151,86,11,,,86,7,0.0928571428571429,16.7195623746862
2,107,7,1,25,8,10,2.49027420009952,127,0.199975124576927,0.399955185446223,2,NaN,27,280,-15,-4.28688943207347,0,0,0,2.49027420009952,-14,68,95,138,104,13,155,33,25,,,,,,33,22,0.0928571428571429,16.7195623746862
2,108,5,1,165,-74,172,1.54878209996969,21,0.199974276334979,0.399957322073169,2,NaN,27,280,7,1.92155060640717,0,0,0,1.54878209996969,40,26,151,82,21,91,165,,,,,,,,91,66,0.0928571428571429,16.7195623746862
2,109,6,1,9,22,9,0.972785499994643,122,0.199978430464398,0.399953207369739,2,NaN,27,280,0,-1.49132452539916,0,0,0,0.972785499994643,-24,16,169,83,6,72,31,9,,,,,,,31,46,0.0928571428571429,16.7195623746862
2,110,5,1,140,-5,137,1.14024170010816,2,0.199966626334935,0.399955756636336,2,NaN,27,280,-3,-7.58673469436612,0,0,0,1.14024170010816,49,25,5,115,34,135,140,,,,,,,,135,54,0.0928571428571429,16.7195623746862
2,111,11,1,42,-52,37,1.29755679995287,20,0.199976356456649,0.399956726490266,2,NaN,27,280,-5,0.612570669526231,0,0,0,1.29755679995287,-82,-33,145,8,129,109,141,24,28,175,111,170,42,,170,30,0.0928571428571429,16.7195623746862
2,112,6,1,55,55,52,2.05511319998186,50,0.199980583003101,0.399955719398956,2,NaN,27,280,-3,11.2570096033323,0,0,0,2.05511319998186,-13,85,121,109,112,119,110,55,,,,,,,110,68,0.0928571428571429,16.7195623746862
2,113,8,1,5,-4,5,1.5903338000644,44,0.199980518736993,0.399956962297438,2,NaN,27,280,0,-1.67445923263664,0,0,0,1.5903338000644,50,37,0,155,105,65,161,102,1,5,,,,,1,54,0.0928571428571429,16.7195623746862
2,114,9,1,89,-29,108,2.03168569994159,140,0.199978698872858,0.39995278556469,2,NaN,27,280,19,13.5834018289016,0,0,0,2.03168569994159,-84,-34,133,16,30,148,159,55,179,60,89,,,,60,55,0.0928571428571429,16.7195623746862
2,115,10,1,162,-55,164,1.24026559991762,48,0.199978529999498,0.399952681188006,2,NaN,27,280,2,-4.26279451440429,0,0,0,1.24026559991762,-73,23,94,3,44,11,16,24,41,129,107,162,,,107,18,0.0928571428571429,16.7195623746862
2,116,5,1,175,56,6,1.58221360004973,117,0.199980223923922,0.399952617404051,2,NaN,27,280,11,10.8764041628335,0,0,0,1.58221360004973,-13,-86,152,149,99,51,175,,,,,,,,51,69,0.0928571428571429,16.7195623746862
2,117,7,1,177,44,174,1.05641980003566,42,0.199978392787411,0.39995238164972,2,NaN,27,280,-3,-0.611474891588477,0,0,0,1.05641980003566,-2,-15,0,167,31,9,160,41,177,,,,,,41,46,0.0928571428571429,16.7195623746862
2,118,8,1,161,33,162,1.47378030000255,104,0.199977648357162,0.399956856956123,2,NaN,27,280,1,-5.62035964828838,0,0,0,1.47378030000255,16,14,55,54,86,121,103,107,14,161,,,,,14,17,0.0928571428571429,16.7195623746862
2,119,9,1,165,-36,166,1.53108600003179,114,0.199978564516641,0.399953599152569,2,NaN,27,280,1,-4.07844939359283,0,0,0,1.53108600003179,-4,12,34,8,125,39,89,76,56,129,165,,,,129,32,0.0928571428571429,16.7195623746862
2,120,7,1,173,-2,173,1.53219689999241,39,0.199978721594172,0.399952767682927,2,NaN,27,280,0,4.6130187358726,0,0,0,1.53219689999241,-8,-12,116,136,2,18,94,171,173,,,,,,171,6,0.0928571428571429,16.7195623746862
2,121,5,1,109,-43,118,1.21539380005561,139,0.19997737694066,0.399956342787482,2,NaN,27,280,9,3.16840543308772,0,0,0,1.21539380005561,64,56,128,170,58,66,109,,,,,,,,66,73,0.0928571428571429,16.7195623746862
2,122,9,1,110,-19,119,1.23204909998458,138,0.199978617032886,0.399954582900844,2,NaN,27,280,9,-2.26896568510258,0,0,0,1.23204909998458,-1,63,84,69,45,57,89,62,81,91,110,,,,91,18,0.0928571428571429,16.7195623746862
2,123,10,1,108,-18,123,1.32379809999838,57,0.199980013247114,0.399952780571766,2,NaN,27,280,15,2.12919846802819,0,0,0,1.32379809999838,2,1,84,179,18,8,165,34,130,27,90,108,,,90,20,0.0928571428571429,16.7195623746862
2,124,4,1,36,61,15,0.724025000003166,109,0.199982795253163,0.399952732637757,2,NaN,27,280,-21,-13.073423510505,0,0,0,0.724025000003166,72,74,141,6,97,36,,,,,,,,,97,11,0.0928571428571429,16.7195623746862
2,125,11,1,147,-72,151,0.923342800000682,158,0.199973869021051,0.399958878967234,2,NaN,27,280,4,-5.99674757254672,0,0,0,0.923342800000682,69,-39,39,178,56,59,165,55,96,144,66,75,147,,75,39,0.0928571428571429,16.7195623746862
2,126,6,1,37,-71,18,0.982287999941036,10,0.199976212054025,0.399957477464341,2,NaN,27,280,-19,-12.8325713141475,0,0,0,0.982287999941036,-70,-1,42,84,101,48,146,37,,,,,,,146,1,0.0928571428571429,16.7195623746862
2,127,5,1,94,-76,59,2.87242650007829,69,0.199977136356756,0.399953811638989,2,NaN,27,280,-35,NaN,0,1,0,NaN,-57,53,143,143,142,18,94,,,,,,,,18,19,0.0928571428571429,16.7195623746862
2,128,7,1,98,6,106,1.17293510003947,144,0.199975339695811,0.399956863406779,2,NaN,27,280,8,-0.685234089336427,0,0,0,1.17293510003947,-4,-61,159,179,8,59,89,104,98,,,,,,104,10,0.0928571428571429,16.7195623746862
2,129,11,1,98,20,110,0.623939900076948,20,0.199978131695058,0.399955521348271,2,NaN,27,280,12,3.31476591066357,0,0,0,0.623939900076948,0,-4,174,55,84,122,6,138,131,72,108,118,98,,118,20,0.0928571428571429,16.7195623746862
2,130,9,1,84,51,70,1.21560210001189,141,0.199976377848846,0.399958364212782,2,NaN,27,280,-14,-17.1144529615074,0,0,0,1.21560210001189,14,14,104,121,79,100,81,103,84,135,84,,,,135,37,0.0928571428571429,16.7195623746862
2,131,7,1,92,-26,57,0.990650699939579,27,0.199977570096962,0.399957293112363,2,NaN,27,280,-35,NaN,0,1,0,NaN,-8,6,5,79,11,91,18,66,92,,,,,,66,18,0.0928571428571429,16.7195623746862
2,132,10,1,133,17,128,1.19914230005816,108,0.199975296575576,0.399958364025224,2,NaN,27,280,-5,-10.0630439754929,0,0,0,1.19914230005816,-41,-49,108,163,159,154,116,146,73,120,150,133,,,150,58,0.0928571428571429,16.7195623746862
2,133,11,1,176,4,166,1.31523050006945,141,0.199978227113289,0.399955115154047,2,NaN,27,280,-10,-3.78363762185647,0,0,0,1.31523050006945,-43,-84,79,28,128,147,41,124,84,58,8,0,176,,0,47,0.0928571428571429,16.7195623746862
2,134,7,1,35,-69,29,1.15730040008202,136,0.199978180329448,0.399955204238982,2,NaN,27,280,-6,1.44485914313427,0,0,0,1.15730040008202,-39,-82,177,77,135,121,150,146,35,,,,,,146,30,0.0928571428571429,16.7195623746862
2,135,11,1,29,62,31,0.957119400030933,93,0.199975769331848,0.399958539553071,2,NaN,27,280,2,4.18833569571871,0,0,0,0.957119400030933,6,-33,35,58,179,16,31,158,83,35,17,91,29,,91,56,0.0928571428571429,16.7195623746862
2,136,7,1,34,-62,21,1.93115690001287,157,0.199979304469057,0.399952138358328,2,NaN,27,280,-13,-6.13728449442906,0,0,0,1.93115690001287,-5,1,4,165,120,59,118,152,34,,,,,,152,57,0.0928571428571429,16.7195623746862
2,137,5,1,125,72,123,1.7900515999645,60,0.199978405819274,0.399955340032466,2,NaN,27,280,-2,-16.1119368384116,0,0,0,1.7900515999645,89,84,73,129,119,17,125,,,,,,,,17,17,0.0928571428571429,16.7195623746862
2,138,6,1,103,69,106,1.6570192000363,140,0.199978666574073,0.399954333435744,2,NaN,27,280,3,-7.36307004609229,0,0,0,1.6570192000363,22,-69,29,36,160,145,172,103,,,,,,,172,47,0.0928571428571429,16.7195623746862
2,139,4,1,82,-26,86,1.34059370006435,55,0.199979389086366,0.399953076994279,2,NaN,27,280,4,11.7134472913152,0,0,0,1.34059370006435,21,43,51,156,56,82,,,,,,,,,56,47,0.0928571428571429,16.7195623746862
2,140,6,1,92,21,97,1.70661059999838,4,0.199977433211946,0.39996299991617,2,NaN,27,280,5,-1.36760671243761,0,0,0,1.70661059999838,-10,11,112,48,170,175,113,92,,,,,,,113,31,0.0928571428571429,16.7195623746862
3,141,5,0,26,-19,15,0.990422099945135,165,0.199976315279491,0.39995558289811,2,NaN,27,280,-11,NaN,0,0,1,0.990422099945135,66,56,8,102,1,7,26,,,,,,,,7,85,0.0928571428571429,16.7195623746862
3,142,12,0,48,-54,40,1.63933010003529,32,0.19997862210342,0.399952778825536,2,NaN,27,280,-8,-0.197274328698891,0,0,0,1.63933010003529,-22,44,73,179,6,105,55,78,63,89,31,173,174,48,174,32,0.0928571428571429,16.7195623746862
3,143,12,0,49,-61,35,0.698658799985424,141,0.199978495036097,0.399953615492753,2,NaN,27,280,-14,-5.32021655609427,0,0,0,0.698658799985424,-1,-23,125,130,49,157,109,4,73,75,24,134,168,49,168,60,0.0928571428571429,16.7195623746862
3,144,7,0,169,28,168,1.25722759997007,53,0.199977180737603,0.399953320239937,2,NaN,27,280,-1,-2.25406416026413,0,0,0,1.25722759997007,60,59,133,86,167,64,128,17,169,,,,,,17,32,0.0928571428571429,16.7195623746862
3,145,10,0,65,8,55,1.0905805999646,95,0.199977409781422,0.399954664078541,2,NaN,27,280,-10,-2.05435114863404,0,0,0,1.0905805999646,-76,-16,167,43,46,98,100,112,158,37,73,65,,,73,84,0.0928571428571429,16.7195623746862
3,146,11,0,114,81,130,1.24870520003606,44,0.199976360181939,0.39995514601469,2,NaN,27,280,16,-3.24940686074035,0,0,0,1.24870520003606,-49,55,157,148,167,132,50,15,64,11,6,15,114,,15,50,0.0928571428571429,16.7195623746862
3,147,12,0,92,-39,111,0.923776399926282,38,0.199978370015742,0.399955847116265,2,NaN,27,280,19,12.6323932875624,0,0,0,0.923776399926282,22,-27,38,20,168,120,42,111,76,85,166,156,53,92,53,61,0.0928571428571429,16.7195623746862
3,148,10,0,31,-1,31,1.61541500000749,92,0.199979212216567,0.399954568350222,2,NaN,27,280,0,8.73859145049894,0,0,0,1.61541500000749,61,83,15,167,62,42,128,109,144,60,30,31,,,30,62,0.0928571428571429,16.7195623746862
3,149,4,0,105,-17,105,1.31464599992614,124,0.199978812423069,0.399957201821962,2,NaN,27,280,0,-7.204556947892,0,0,0,1.31464599992614,-74,-13,71,5,88,105,,,,,,,,,88,57,0.0928571428571429,16.7195623746862
3,150,11,0,170,-43,162,1.30711619998328,167,0.199978146744384,0.399954026554373,2,NaN,27,280,-8,-4.84362078182772,0,0,0,1.30711619998328,-65,41,55,145,65,94,118,146,25,159,110,127,170,,127,22,0.0928571428571429,16.7195623746862
3,151,9,0,158,-57,160,1.41452500002924,98,0.199977341185634,0.399956079652636,2,NaN,27,280,2,-6.76108113480507,0,0,0,1.41452500002924,12,-53,168,175,3,156,66,106,170,101,158,,,,101,69,0.0928571428571429,16.7195623746862
3,152,8,0,56,51,57,1.10718789999373,110,0.19997796593816,0.399955241795396,2,NaN,27,280,1,-0.513373456446819,0,0,0,1.10718789999373,-78,-66,91,73,28,140,90,82,107,56,,,,,107,51,0.0928571428571429,16.7195623746862
3,153,4,0,168,-72,158,0.907378699979745,85,0.199977585347369,0.399953651853139,2,NaN,27,280,-10,-12.1410626983416,0,0,0,0.907378699979745,68,-10,45,100,96,168,,,,,,,,,96,40,0.0928571428571429,16.7195623746862
3,154,5,0,106,3,126,0.640661400044337,36,0.199978546099737,0.399953008326702,2,NaN,27,280,20,12.1638780383501,0,0,0,0.640661400044337,62,-50,119,107,67,109,106,,,,,,,,109,59,0.0928571428571429,16.7195623746862
3,155,12,0,126,12,125,1.00706099998206,67,0.19997823042407,0.399954461075443,2,NaN,27,280,-1,-9.41101729740117,0,0,0,1.00706099998206,-20,42,0,66,130,35,151,136,172,5,53,177,138,126,138,32,0.0928571428571429,16.7195623746862
3,156,12,0,149,-41,159,1.2569574000081,110,0.1999775969792,0.399954536861818,2,NaN,27,280,10,10.5158814965265,0,0,0,1.2569574000081,-23,-43,86,39,158,168,99,124,22,104,134,73,108,149,108,18,0.0928571428571429,16.7195623746862
3,157,9,0,131,-63,154,1.88192459999118,102,0.199980761273764,0.39995498670679,2,NaN,27,280,23,10.404017911859,0,0,0,1.88192459999118,18,-5,155,67,119,64,134,86,106,68,131,,,,68,81,0.0928571428571429,16.7195623746862
3,158,4,0,41,-68,154,1.2656867998885,30,0.199974208924687,0.399955933709862,2,NaN,27,280,-67,NaN,0,1,0,NaN,90,-72,102,42,153,41,,,,,,,,,153,22,0.0928571428571429,16.7195623746862
3,159,10,0,80,-48,67,1.10706740000751,179,0.1999770669383,0.399956727284007,2,NaN,27,280,-13,-12.1437440413833,1,0,0,1.10706740000751,-39,51,128,99,119,126,118,11,150,109,32,80,,,32,9,0.0928571428571429,16.7195623746862
3,160,11,0,161,19,160,0.940406999900006,164,0.1999769147422,0.399953617947176,2,NaN,27,280,-1,-7.62035964828838,0,0,0,0.940406999900006,-81,60,90,154,162,15,6,173,17,133,54,0,161,,0,80,0.0928571428571429,16.7195623746862
3,161,11,0,141,60,155,0.898727799998596,116,0.199977138820528,0.399955563109622,2,NaN,27,280,14,4.03387286216678,0,0,0,0.898727799998596,20,-61,84,178,15,48,120,6,7,86,159,21,141,,21,40,0.0928571428571429,16.7195623746862
3,162,7,0,22,58,19,1.29842159990221,170,0.199974608956836,0.399957230680489,2,NaN,27,280,-3,5.71250903685505,0,0,0,1.29842159990221,-61,-41,45,120,80,49,27,80,22,,,,,,80,61,0.0928571428571429,16.7195623746862
3,163,4,0,116,-33,75,3.24870310002007,165,0.199977228883654,0.399956537177786,2,NaN,27,280,-41,NaN,0,1,0,NaN,86,25,126,172,83,116,,,,,,,,,83,61,0.0928571428571429,16.7195623746862
3,164,12,0,27,64,17,0.94047530007083,179,0.199977728140463,0.399956682842458,2,NaN,27,280,-10,1.61631125245222,0,0,0,0.94047530007083,89,-5,162,21,70,85,22,53,43,149,92,77,91,27,91,25,0.0928571428571429,16.7195623746862
3,165,12,0,172,27,172,1.51512340002228,6,0.199978158275674,0.399953341722721,2,NaN,27,280,0,-1.68439306129442,0,0,0,1.51512340002228,35,-56,154,112,151,18,120,172,137,146,87,110,19,172,19,8,0.0928571428571429,16.7195623746862
3,166,10,0,125,-68,156,1.57381660002284,173,0.19997705972055,0.399954034970142,2,NaN,27,280,31,16.8880631615884,0,0,0,1.57381660002284,47,82,75,162,73,116,32,57,22,47,57,125,,,57,65,0.0928571428571429,16.7195623746862
3,167,12,0,102,-33,130,2.09781449998263,63,0.19997902205796,0.399953714203245,2,NaN,27,280,28,NaN,0,1,0,NaN,23,70,170,145,10,112,148,10,177,10,98,53,69,102,69,56,0.0928571428571429,16.7195623746862
3,168,10,0,164,-7,162,0.980953800026327,128,0.199977762787603,0.399955913552549,2,NaN,27,280,-2,-4.60126265054943,0,0,0,0.980953800026327,-62,-39,157,129,137,9,152,164,43,126,157,164,,,157,55,0.0928571428571429,16.7195623746862
3,169,5,0,88,-50,67,1.88144070003182,45,0.199979219818488,0.399951687408611,2,NaN,27,280,-21,-16.0171905258235,0,0,0,1.88144070003182,76,14,142,18,24,38,88,,,,,,,,38,54,0.0928571428571429,16.7195623746862
3,170,11,0,13,24,3,0.856814699945971,141,0.199977883010764,0.399955725403164,2,NaN,27,280,-10,-4.26937061396449,0,0,0,0.856814699945971,75,-29,34,100,94,122,140,171,98,30,157,37,13,,37,51,0.0928571428571429,16.7195623746862
3,171,6,0,98,14,94,1.90628250001464,125,0.199975456324561,0.399957007049428,2,NaN,27,280,-4,-12.6852340893364,0,0,0,1.90628250001464,-85,-10,162,15,38,113,112,98,,,,,,,112,81,0.0928571428571429,16.7195623746862
3,172,4,0,178,48,176,1.39801090001129,7,0.199975944589823,0.399955441011116,2,NaN,27,280,-2,0.379608566467279,0,0,0,1.39801090001129,-80,15,31,157,46,178,,,,,,,,,46,52,0.0928571428571429,16.7195623746862
3,173,5,0,56,-58,54,0.831004400039092,160,0.199966941168532,0.399956904095598,2,NaN,27,280,-2,-3.51337345644682,0,0,0,0.831004400039092,-58,42,40,124,72,178,56,,,,,,,,178,0,0.0928571428571429,16.7195623746862
3,174,5,0,162,69,167,1.44886040000711,28,0.19996679299511,0.399953366885893,2,NaN,27,280,5,-1.26279451440429,0,0,0,1.44886040000711,74,16,39,82,159,51,162,,,,,,,,51,5,0.0928571428571429,16.7195623746862
3,175,6,0,145,-13,152,1.16556550003588,33,0.199976595370875,0.399954649871991,2,NaN,27,280,7,2.2179368922587,0,0,0,1.16556550003588,17,-89,42,122,163,134,132,145,,,,,,,132,30,0.0928571428571429,16.7195623746862
3,176,9,0,150,28,142,1.26564460003283,100,0.199977399923632,0.399954926817574,2,NaN,27,280,-8,-14.9793337296365,0,0,0,1.26564460003283,-5,12,73,171,47,10,10,94,155,178,150,,,,178,33,0.0928571428571429,16.7195623746862
3,177,4,0,129,-4,135,1.13234830007423,150,0.199977639917051,0.399956820969237,2,NaN,27,280,6,-1.24351862604146,0,0,0,1.13234830007423,21,16,103,77,125,129,,,,,,,,,125,25,0.0928571428571429,16.7195623746862
3,178,9,0,167,28,170,0.873585699941032,71,0.199975431806201,0.399954123448374,2,NaN,27,280,3,3.97700198071747,0,0,0,0.873585699941032,-38,-17,134,146,168,68,17,15,10,15,167,,,,15,66,0.0928571428571429,16.7195623746862
3,179,11,0,154,32,146,1.38976900000125,94,0.199977495982735,0.399956731189212,2,NaN,27,280,-8,-8.68182943022039,0,0,0,1.38976900000125,13,-25,114,147,102,121,61,83,52,115,161,6,154,,6,19,0.0928571428571429,16.7195623746862
3,180,9,0,149,-24,161,1.23225679993629,48,0.199976967324296,0.399954975517984,2,NaN,27,280,12,12.5158814965265,0,0,0,1.23225679993629,5,18,1,33,42,98,16,140,53,125,149,,,,125,29,0.0928571428571429,16.7195623746862
3,181,9,0,128,-64,155,1.01550870004576,30,0.199978611871807,0.39995492529124,2,NaN,27,280,27,12.9446287758149,0,0,0,1.01550870004576,21,26,169,96,43,39,173,3,38,64,128,,,,64,85,0.0928571428571429,16.7195623746862
3,182,12,0,113,57,119,0.940312899998389,39,0.199973809969379,0.39995394757716,2,NaN,27,280,6,-2.24944050482399,0,0,0,0.940312899998389,15,36,50,146,135,41,139,119,66,76,143,96,170,113,170,42,0.0928571428571429,16.7195623746862
3,183,4,0,3,63,5,1.04782430001069,179,0.199975091411034,0.399958035181044,2,NaN,27,280,2,4.76522357049007,0,0,0,1.04782430001069,-70,-55,36,2,66,3,,,,,,,,,66,47,0.0928571428571429,16.7195623746862
3,184,10,0,79,-19,65,1.34741699998267,78,0.19997644291725,0.399954429874197,2,NaN,27,280,-14,-6.1650357296449,0,0,0,1.34741699998267,-76,34,155,49,106,127,126,32,34,124,60,79,,,60,57,0.0928571428571429,16.7195623746862
3,185,6,0,49,-31,38,0.957202300080098,65,0.199975738088445,0.399955906847026,2,NaN,27,280,-11,-2.32021655609427,0,0,0,0.957202300080098,30,-46,163,165,67,23,18,49,,,,,,,18,61,0.0928571428571429,16.7195623746862
3,186,10,0,129,14,133,1.48942459991667,99,0.199979262659326,0.39995430445997,2,NaN,27,280,4,-3.24351862604146,0,0,0,1.48942459991667,-80,-50,81,142,179,45,138,109,179,151,143,129,,,143,86,0.0928571428571429,16.7195623746862
3,187,4,0,177,-49,4,1.20719659992028,41,0.199979580298532,0.399954055115813,2,NaN,27,280,7,9.38852510841152,0,0,0,1.20719659992028,-48,52,80,148,128,177,,,,,,,,,128,1,0.0928571428571429,16.7195623746862
3,188,12,0,64,-26,66,1.08115580002777,69,0.199977893789764,0.399955793507009,2,NaN,27,280,2,8.94464256204611,0,0,0,1.08115580002777,-67,65,13,103,116,24,53,139,113,43,163,59,38,64,38,41,0.0928571428571429,16.7195623746862
3,189,6,0,111,2,119,0.890478200046346,38,0.199975375415913,0.399959535202167,2,NaN,27,280,8,-9.75609261868785,0,0,0,0.890478200046346,-47,66,120,17,170,113,113,111,,,,,,,113,49,0.0928571428571429,16.7195623746862
3,190,8,0,153,-60,163,1.33223860000726,75,0.199977121519623,0.39995303939213,2,NaN,27,280,10,5.60816341224333,0,0,0,1.33223860000726,-42,-89,47,51,161,116,91,37,93,153,,,,,93,18,0.0928571428571429,16.7195623746862
3,191,8,0,128,50,148,0.807283500093035,32,0.199978134129196,0.399955500295619,2,NaN,27,280,20,5.94462877581493,0,0,0,0.807283500093035,25,-17,24,159,133,4,110,71,178,128,,,,,178,25,0.0928571428571429,16.7195623746862
