delta,block,trial,theta,nstim,condition,resp,rt,bar_start,avg_stim_duration,avg_blank_duration,obs,female,age,ntrials,error,errorc,error_out_after,error_removed,block_start_index,rtc,delta_btw,laststim,seq_1,seq_2,seq_3,seq_4,seq_5,seq_6,seq_7,seq_8,seq_9,seq_10,seq_11,seq_12,delta_diff,ptrialout,errorsigm
20,1,1,100,10,1,107,1.35287870001048,107,0.199978703598026,0.399952421861235,1,1,22,420,7,NaN,NaN,0,1,1.35287870001048,NaN,120,130,97,96,107,96,97,114,107,120,100,,,NaN,0.0738095238095238,17.1541091799317
20,1,2,160,5,1,144,1.28773250000086,4,0.199978061160073,0.399954782228451,1,NaN,22,420,-16,-3.51394001862138,0,0,0,1.28773250000086,-60,0,168,161,4,0,160,,,,,,,,80,0.0738095238095238,17.1541091799317
-20,1,3,0,4,1,151,1.43780309997965,21,0.199973427806981,0.399956451437902,1,NaN,22,420,-29,NaN,0,1,0,NaN,-20,160,167,178,160,0,,,,,,,,,0,0.0738095238095238,17.1541091799317
20,1,4,160,8,1,140,2.72070479998365,6,0.199979001685278,0.399952458246844,1,NaN,22,420,-20,-7.51394001862138,0,0,0,2.72070479998365,20,0,176,160,163,1,178,8,0,160,,,,,0,0.0738095238095238,17.1541091799317
20,1,5,40,9,1,39,1.36268500000006,91,0.199976242179724,0.399958209839598,1,NaN,22,420,-1,-1.72551524529746,0,0,0,1.36268500000006,-60,60,65,77,77,62,52,44,70,60,40,,,,80,0.0738095238095238,17.1541091799317
20,1,6,40,4,1,33,1.77946009999141,129,0.199976105199312,0.399955833941931,1,NaN,22,420,-7,-7.72551524529746,0,0,0,1.77946009999141,0,60,74,58,60,40,,,,,,,,,20,0.0738095238095238,17.1541091799317
0,1,7,160,12,1,152,2.6622892000014,173,0.199977914167296,0.399955947301351,1,NaN,22,420,-8,4.48605998137862,0,0,0,2.6622892000014,60,160,50,71,84,76,105,121,146,137,160,169,160,160,60,0.0738095238095238,17.1541091799317
20,1,8,0,6,1,3,1.35449110000627,60,0.199978986483378,0.399958759100021,1,NaN,22,420,3,6.94622444803067,0,0,0,1.35449110000627,-20,20,173,166,167,173,20,0,,,,,,,40,0.0738095238095238,17.1541091799317
40,1,9,0,7,1,0,1.79596540000057,22,0.199980079495747,0.399948840162584,1,NaN,22,420,0,3.94622444803067,0,0,0,1.79596540000057,0,40,40,25,42,42,39,40,0,,,,,,40,0.0738095238095238,17.1541091799317
0,1,10,80,5,1,75,1.12101120001171,57,0.199976907542441,0.399958446016535,1,NaN,22,420,-5,-2.11247677167816,0,0,0,1.12101120001171,-80,80,57,67,82,80,80,,,,,,,,80,0.0738095238095238,17.1541091799317
-60,1,11,40,9,1,42,1.97910529997898,117,0.199976072970053,0.399953649243495,1,NaN,22,420,2,1.27448475470254,0,0,0,1.97910529997898,40,160,164,168,173,175,168,176,171,160,40,,,,80,0.0738095238095238,17.1541091799317
40,1,12,0,7,1,175,1.37931940000271,17,0.199974522402044,0.399956862525349,1,NaN,22,420,-5,-1.05377555196933,0,0,0,1.37931940000271,40,40,110,75,74,100,72,40,0,,,,,,0,0.0738095238095238,17.1541091799317
-40,1,13,160,9,1,137,1.26253849995555,58,0.199975707975682,0.399955098536642,1,NaN,22,420,-23,-10.5139400186214,0,0,0,1.26253849995555,20,120,16,21,25,5,141,142,126,120,160,,,,60,0.0738095238095238,17.1541091799317
-20,1,14,0,4,1,148,1.72918409999693,64,0.199973270762712,0.399955764121842,1,NaN,22,420,-32,NaN,0,1,0,NaN,-20,160,134,141,160,0,,,,,,,,,0,0.0738095238095238,17.1541091799317
40,1,15,20,10,1,23,1.0959999000188,23,0.199975163588533,0.399955922813388,1,NaN,22,420,3,-3.99732426337664,0,0,0,1.0959999000188,-20,60,142,156,141,174,161,155,141,110,60,20,,,60,0.0738095238095238,17.1541091799317
20,1,16,60,7,1,37,2.10425370000303,94,0.199976334747459,0.399954225618525,1,NaN,22,420,-23,-21.1074796978276,0,0,0,2.10425370000303,-40,80,90,81,85,87,70,80,60,,,,,,60,0.0738095238095238,17.1541091799317
-20,1,17,60,6,1,46,2.09599070000695,39,0.199974531113791,0.399954011343652,1,NaN,22,420,-14,-12.1074796978276,0,0,0,2.09599070000695,0,40,78,72,45,56,40,60,,,,,,,20,0.0738095238095238,17.1541091799317
-40,1,18,40,10,1,24,2.26244649995351,9,0.199978280195501,0.39995299866423,1,NaN,22,420,-16,-16.7255152452975,0,0,0,2.26244649995351,20,0,129,136,124,160,177,174,3,163,0,40,,,60,0.0738095238095238,17.1541091799317
0,1,19,160,8,1,144,2.40380810003262,45,0.199976269577746,0.399953320724308,1,NaN,22,420,-16,-3.51394001862138,0,0,0,2.40380810003262,60,160,132,114,126,135,138,147,160,160,,,,,60,0.0738095238095238,17.1541091799317
-40,1,20,40,6,1,37,1.47089410002809,61,0.199978161923354,0.399954366342475,1,NaN,22,420,-3,-3.72551524529746,0,0,0,1.47089410002809,-60,0,43,30,17,17,0,40,,,,,,,20,0.0738095238095238,17.1541091799317
0,1,21,40,6,1,32,1.32929700001841,54,0.199978312584183,0.399952902836958,1,NaN,22,420,-8,-8.72551524529746,0,0,0,1.32929700001841,0,40,66,79,76,53,40,40,,,,,,,0,0.0738095238095238,17.1541091799317
0,1,22,100,12,1,105,2.00412129994947,164,0.199976960556038,0.399953457847005,1,NaN,22,420,5,-3.85654919375156,0,0,0,2.00412129994947,-60,100,102,106,105,113,113,130,132,115,88,107,100,100,60,0.0738095238095238,17.1541091799317
-60,1,23,0,12,1,2,1.57069600000978,134,0.199977477643794,0.399953095140518,1,NaN,22,420,2,5.94622444803067,0,0,0,1.57069600000978,-80,120,9,179,149,173,175,147,127,120,108,102,120,0,20,0.0738095238095238,17.1541091799317
-40,1,24,100,8,1,102,1.77097240003059,118,0.199980349745601,0.399951397659606,1,NaN,22,420,2,-6.85654919375156,0,0,0,1.77097240003059,80,60,64,81,46,55,53,48,60,100,,,,,60,0.0738095238095238,17.1541091799317
60,1,25,60,12,1,55,1.57083270000294,127,0.19997654890661,0.399954061770889,1,NaN,22,420,-5,-3.10747969782755,0,0,0,1.57083270000294,40,120,30,14,4,20,0,160,134,123,137,114,120,60,20,0.0738095238095238,17.1541091799317
40,1,26,100,10,1,102,1.479332399962,108,0.199977318680612,0.399954170727869,1,NaN,22,420,2,-6.85654919375156,0,0,0,1.479332399962,-40,140,159,154,172,162,146,161,171,148,140,100,,,80,0.0738095238095238,17.1541091799317
20,1,27,0,4,1,46,1.47923929995159,46,0.199978252770961,0.399951773157227,1,NaN,22,420,46,NaN,0,1,0,NaN,-80,20,33,17,20,0,,,,,,,,,80,0.0738095238095238,17.1541091799317
20,1,28,20,11,1,27,1.61238119995687,171,0.199978584598284,0.399953688314947,1,NaN,22,420,7,0.00267573662336268,1,0,0,1.61238119995687,-20,40,95,101,79,93,90,93,72,74,59,40,20,,40,0.0738095238095238,17.1541091799317
-20,1,29,0,5,1,165,1.57091460004449,22,0.199975317355711,0.399955555482302,1,NaN,22,420,-15,-11.0537755519693,0,0,0,1.57091460004449,20,160,136,173,160,160,0,,,,,,,,40,0.0738095238095238,17.1541091799317
40,1,30,60,12,1,61,1.35421190003399,98,0.199976952712556,0.399953514754695,1,NaN,22,420,1,2.89252030217245,0,0,0,1.35421190003399,-60,100,21,31,45,49,63,60,78,83,91,83,100,60,80,0.0738095238095238,17.1541091799317
-40,1,31,20,11,1,13,1.58757360000163,33,0.199975554360373,0.399952470674179,1,NaN,22,420,-7,-13.9973242633766,0,0,0,1.58757360000163,40,160,149,177,174,174,134,138,148,157,142,160,20,,80,0.0738095238095238,17.1541091799317
40,1,32,140,5,1,139,1.80431209999369,61,0.199975981516764,0.399955247179605,1,NaN,22,420,-1,1.32106692378074,0,0,0,1.80431209999369,60,0,47,31,1,0,140,,,,,,,,20,0.0738095238095238,17.1541091799317
-40,1,33,80,11,1,71,1.77907769999001,56,0.199976600711869,0.399954165506642,1,NaN,22,420,-9,-6.11247677167816,0,0,0,1.77907769999001,60,40,46,57,54,70,80,77,52,35,51,40,80,,80,0.0738095238095238,17.1541091799317
40,1,34,40,7,1,42,1.87918410002021,95,0.199980708088593,0.399952961431284,1,NaN,22,420,2,1.27448475470254,0,0,0,1.87918410002021,40,80,52,49,59,64,81,80,40,,,,,,0,0.0738095238095238,17.1541091799317
0,1,35,60,6,1,58,3.08750219998183,7,0.199976776435506,0.39995066979706,1,NaN,22,420,-2,-0.107479697827553,0,0,0,3.08750219998183,-20,60,8,171,5,7,60,60,,,,,,,20,0.0738095238095238,17.1541091799317
-20,1,36,40,9,1,57,2.23742339998716,42,0.199975526859311,0.399958175878661,1,NaN,22,420,17,16.2744847547025,0,0,0,2.23742339998716,20,20,57,47,48,21,30,24,25,20,40,,,,40,0.0738095238095238,17.1541091799317
20,1,37,140,7,1,141,1.97080650000134,115,0.199976288696884,0.39995417519406,1,NaN,22,420,1,3.32106692378074,0,0,0,1.97080650000134,80,160,151,164,146,142,155,160,140,,,,,,60,0.0738095238095238,17.1541091799317
40,1,38,60,9,1,51,1.67869819997577,80,0.199977810488134,0.399951840459835,1,NaN,22,420,-9,-7.10747969782755,0,0,0,1.67869819997577,80,100,87,71,82,70,70,78,93,100,60,,,,40,0.0738095238095238,17.1541091799317
-60,1,39,160,4,1,150,2.63758219999727,57,0.199975516996346,0.399955472632428,1,NaN,22,420,-10,2.48605998137862,0,0,0,2.63758219999727,80,100,82,106,100,160,,,,,,,,,40,0.0738095238095238,17.1541091799317
-40,1,40,120,9,1,131,1.66262439999264,47,0.199979045486543,0.399955842559898,1,NaN,22,420,11,6.06935374210246,0,0,0,1.66262439999264,40,80,123,112,122,137,99,106,79,80,120,,,,80,0.0738095238095238,17.1541091799317
-40,1,41,60,9,1,45,1.26249950000783,73,0.199978781980462,0.39995252956093,1,NaN,22,420,-15,-13.1074796978276,0,0,0,1.26249950000783,60,20,134,137,142,161,15,16,15,20,60,,,,80,0.0738095238095238,17.1541091799317
60,1,42,60,5,1,59,1.39595879998524,53,0.199977559258696,0.399954527930822,1,NaN,22,420,-1,0.892520302172447,0,0,0,1.39595879998524,0,120,132,137,130,120,60,,,,,,,,60,0.0738095238095238,17.1541091799317
60,1,43,100,11,1,106,1.63761350000277,138,0.199974951101467,0.399950730381534,1,NaN,22,420,6,-2.85654919375156,0,0,0,1.63761350000277,-40,160,137,129,123,132,138,135,149,160,150,160,100,,80,0.0738095238095238,17.1541091799317
40,1,44,100,6,1,99,2.19584589998703,110,0.199976581478647,0.399954477344484,1,NaN,22,420,-1,-9.85654919375156,0,0,0,2.19584589998703,0,140,24,141,148,140,140,100,,,,,,,40,0.0738095238095238,17.1541091799317
-60,1,45,0,8,1,169,2.06257210002514,32,0.19997566202801,0.399953266991361,1,NaN,22,420,-11,-7.05377555196933,0,0,0,2.06257210002514,-80,120,130,120,98,98,91,88,120,0,,,,,20,0.0738095238095238,17.1541091799317
-40,1,46,80,9,1,105,2.19604369997978,86,0.199976674837267,0.399955243803561,1,NaN,22,420,25,NaN,0,1,0,NaN,-80,40,38,31,50,45,46,59,61,40,80,,,,40,0.0738095238095238,17.1541091799317
20,1,47,140,7,1,140,1.65423770004418,153,0.199976655804286,0.39995287788666,1,NaN,22,420,0,2.32106692378074,0,0,0,1.65423770004418,-60,160,153,154,142,129,134,160,140,,,,,,80,0.0738095238095238,17.1541091799317
60,1,48,100,10,1,109,2.67918330000248,110,0.199979589076247,0.399953935644589,1,NaN,22,420,9,0.143450806248438,0,0,0,2.67918330000248,40,160,167,147,124,136,148,140,153,144,160,100,,,20,0.0738095238095238,17.1541091799317
40,1,49,140,9,1,130,1.57920429995283,78,0.199976443623503,0.399953677538886,1,NaN,22,420,-10,-7.67893307621926,0,0,0,1.57920429995283,-40,0,131,144,140,163,164,174,12,0,140,,,,80,0.0738095238095238,17.1541091799317
-60,1,50,20,9,1,26,1.41253180004423,85,0.199978694966477,0.399952180948781,1,NaN,22,420,6,-0.997324263376637,0,0,0,1.41253180004423,-60,140,83,120,136,121,135,133,133,140,20,,,,0,0.0738095238095238,17.1541091799317
-60,1,51,140,8,1,135,1.66240869998001,38,0.199975051647925,0.399955068620329,1,NaN,22,420,-5,-2.67893307621926,0,0,0,1.66240869998001,60,80,44,32,62,47,74,79,80,140,,,,,60,0.0738095238095238,17.1541091799317
-60,1,52,40,10,1,50,1.87086590001127,0,0.199980110937031,0.39995117415092,1,NaN,22,420,10,9.27448475470254,0,0,0,1.87086590001127,-80,160,4,159,146,136,133,137,152,139,160,40,,,20,0.0738095238095238,17.1541091799317
-60,1,53,60,8,1,49,3.81235030002426,138,0.199978350945457,0.399952708008641,1,NaN,22,420,-11,-9.10747969782755,0,0,0,3.81235030002426,-20,0,2,168,159,178,157,9,0,60,,,,,40,0.0738095238095238,17.1541091799317
40,1,54,20,4,1,56,1.98770359996706,116,0.199979146709666,0.399952694337117,1,NaN,22,420,36,NaN,0,1,0,NaN,40,60,35,47,60,20,,,,,,,,,0,0.0738095238095238,17.1541091799317
60,1,55,140,4,1,136,0.962766799959354,75,0.199979440076277,0.39995081606321,1,NaN,22,420,-4,-1.67893307621926,0,0,0,0.962766799959354,60,20,9,172,20,140,,,,,,,,,0,0.0738095238095238,17.1541091799317
-20,1,56,160,5,1,138,1.68740280001657,21,0.199979146395344,0.399952419253532,1,NaN,22,420,-22,-9.51394001862138,0,0,0,1.68740280001657,-20,140,155,141,152,140,160,,,,,,,,0,0.0738095238095238,17.1541091799317
-40,1,57,120,12,1,114,1.81232589995489,84,0.199977924542812,0.39995127702908,1,NaN,22,420,-6,-10.9306462578975,0,0,0,1.81232589995489,40,80,47,50,48,84,86,96,80,83,66,83,80,120,80,0.0738095238095238,17.1541091799317
20,1,58,60,11,1,70,1.80415959999664,28,0.199976998286068,0.399952008240772,1,NaN,22,420,10,11.8925203021724,0,0,0,1.80415959999664,60,80,95,98,101,91,77,94,91,88,77,80,60,,40,0.0738095238095238,17.1541091799317
60,1,59,120,5,1,127,2.12928150000516,81,0.199977957759984,0.399952669010963,1,NaN,22,420,7,2.06935374210246,0,0,0,2.12928150000516,-60,0,167,177,14,0,120,,,,,,,,60,0.0738095238095238,17.1541091799317
-20,1,60,40,11,1,42,1.93751999997767,153,0.199977147345304,0.39995239038994,1,NaN,22,420,2,1.27448475470254,0,0,0,1.93751999997767,80,20,37,41,53,49,47,43,28,18,11,20,40,,80,0.0738095238095238,17.1541091799317
0,1,61,60,10,1,52,2.09592520003207,13,0.19997895717388,0.399952763575129,1,NaN,22,420,-8,-6.10747969782755,0,0,0,2.09592520003207,-20,60,52,66,59,57,41,51,65,63,60,60,,,20,0.0738095238095238,17.1541091799317
20,1,62,120,11,1,127,2.14570949994959,96,0.199978702897418,0.399952847727532,1,NaN,22,420,7,2.06935374210246,0,0,0,2.14570949994959,-60,140,160,146,160,100,109,104,129,111,131,140,120,,80,0.0738095238095238,17.1541091799317
60,1,63,120,12,1,122,2.5205791000044,13,0.199976039642934,0.399954437414029,1,NaN,22,420,2,-2.93064625789754,0,0,0,2.5205791000044,0,0,15,43,47,44,45,50,26,8,10,159,0,120,60,0.0738095238095238,17.1541091799317
-60,1,64,0,9,1,169,1.66254849999677,178,0.199976729164417,0.399954265837247,1,NaN,22,420,-11,-7.05377555196933,0,0,0,1.66254849999677,-60,120,80,70,93,111,121,110,123,120,0,,,,0,0.0738095238095238,17.1541091799317
0,1,65,140,11,1,145,1.40420260000974,112,0.199977298584682,0.399953923844309,1,NaN,22,420,5,7.32106692378074,0,0,0,1.40420260000974,40,140,166,2,168,160,163,132,139,147,144,140,140,,40,0.0738095238095238,17.1541091799317
0,1,66,160,7,1,161,1.43754979997175,143,0.19997751185604,0.399951475190132,1,NaN,22,420,1,13.4860599813786,0,0,0,1.43754979997175,-20,160,165,172,167,153,130,160,160,,,,,,20,0.0738095238095238,17.1541091799317
60,1,67,40,11,1,33,1.6040895000333,113,0.199974356806541,0.399955090526915,1,NaN,22,420,-7,-7.72551524529746,0,0,0,1.6040895000333,-60,100,13,50,54,68,76,92,95,79,108,100,40,,60,0.0738095238095238,17.1541091799317
-40,1,68,100,12,1,98,3.35411620000377,138,0.199979348122724,0.39995461635408,1,NaN,22,420,-2,-10.8565491937516,0,0,0,3.35411620000377,-60,60,136,150,133,129,103,82,76,83,89,77,60,100,20,0.0738095238095238,17.1541091799317
60,1,69,0,4,1,92,1.75424929999281,19,0.199977060881793,0.399952692430816,1,NaN,22,420,-88,NaN,0,1,0,NaN,-80,60,51,75,60,0,,,,,,,,,40,0.0738095238095238,17.1541091799317
-40,1,70,140,5,1,142,2.10681109997677,72,0.199977466813289,0.399956544511952,1,NaN,22,420,2,4.32106692378074,1,0,0,2.10681109997677,40,100,139,139,110,100,140,,,,,,,,80,0.0738095238095238,17.1541091799317
0,1,71,60,9,1,64,1.75398480001604,53,0.199974907575072,0.399953702076649,1,NaN,22,420,4,5.89252030217245,0,0,0,1.75398480001604,80,60,31,8,31,30,49,66,66,60,60,,,,80,0.0738095238095238,17.1541091799317
40,1,72,100,9,1,107,1.53761329996632,161,0.199977198738553,0.399954371076698,1,NaN,22,420,7,-1.85654919375156,0,0,0,1.53761329996632,-40,140,105,99,117,119,130,123,121,140,100,,,,80,0.0738095238095238,17.1541091799317
-60,1,73,100,11,1,115,1.94584340002621,108,0.199977052821354,0.399953325712969,1,NaN,22,420,15,6.14345080624844,0,0,0,1.94584340002621,0,40,60,78,92,89,62,59,75,60,37,40,100,,60,0.0738095238095238,17.1541091799317
-40,1,74,160,6,1,153,1.52924510004232,162,0.199978095605426,0.399953750650942,1,NaN,22,420,-7,5.48605998137862,0,0,0,1.52924510004232,-60,120,111,107,128,130,120,160,,,,,,,20,0.0738095238095238,17.1541091799317
-60,1,75,100,6,1,92,1.33759260002989,124,0.199977808816281,0.399954622640507,1,NaN,22,420,-8,-16.8565491937516,0,0,0,1.33759260002989,60,40,129,135,172,15,40,100,,,,,,,60,0.0738095238095238,17.1541091799317
60,1,76,60,5,1,67,1.72104420000687,34,0.199977591680363,0.399956689809915,1,NaN,22,420,7,8.89252030217245,0,0,0,1.72104420000687,40,120,117,115,107,120,60,,,,,,,,20,0.0738095238095238,17.1541091799317
-60,1,77,120,10,1,128,1.36251159996027,101,0.199976321170107,0.399955517140916,1,NaN,22,420,8,3.06935374210246,0,0,0,1.36251159996027,-60,60,109,109,96,119,135,129,112,60,60,120,,,0,0.0738095238095238,17.1541091799317
-40,1,78,40,5,1,27,2.87926529999822,177,0.199978373583872,0.399951272073667,1,NaN,22,420,-13,-13.7255152452975,0,0,0,2.87926529999822,80,0,3,7,179,0,40,,,,,,,,60,0.0738095238095238,17.1541091799317
60,1,79,80,5,1,89,1.6626954000094,23,0.19997756567318,0.399955455842428,1,NaN,22,420,9,11.8875232283218,0,0,0,1.6626954000094,-40,140,128,157,158,140,80,,,,,,,,80,0.0738095238095238,17.1541091799317
-20,1,80,20,10,1,30,1.63765889999922,62,0.199976769828936,0.399953384930268,1,NaN,22,420,10,3.00267573662336,0,0,0,1.63765889999922,60,0,12,12,32,30,32,43,45,17,0,20,,,80,0.0738095238095238,17.1541091799317
-40,1,81,140,8,1,139,1.77076220000163,122,0.199975651652494,0.399956425950222,1,NaN,22,420,-1,1.32106692378074,0,0,0,1.77076220000163,60,100,75,68,61,82,75,65,100,140,,,,,80,0.0738095238095238,17.1541091799317
60,1,82,20,4,1,32,1.82092529995134,0,0.199975091061788,0.399955609915196,1,NaN,22,420,12,5.00267573662336,0,0,0,1.82092529995134,-60,80,110,101,80,20,,,,,,,,,60,0.0738095238095238,17.1541091799317
60,1,83,160,8,1,156,1.36263280001003,116,0.199977717704314,0.399952992673207,1,NaN,22,420,-4,8.48605998137862,0,0,0,1.36263280001003,40,40,35,31,41,36,42,51,40,160,,,,,20,0.0738095238095238,17.1541091799317
-60,1,84,20,11,1,22,1.08759170002304,31,0.199977988689418,0.399955712650395,1,NaN,22,420,2,-4.99732426337664,0,0,0,1.08759170002304,-40,140,136,145,156,148,172,154,140,138,155,140,20,,20,0.0738095238095238,17.1541091799317
-20,1,85,40,10,1,35,1.61244509997778,75,0.199976615450578,0.399954283778788,1,NaN,22,420,-5,-5.72551524529746,0,0,0,1.61244509997778,-20,20,154,154,145,147,163,177,21,10,20,40,,,0,0.0738095238095238,17.1541091799317
60,1,86,0,5,1,176,1.73770550003974,92,0.199972119240556,0.399954574357253,1,NaN,22,420,-4,-0.0537755519693329,0,0,0,1.73770550003974,40,60,45,69,75,60,0,,,,,,,,20,0.0738095238095238,17.1541091799317
40,1,87,120,9,1,119,1.78757889999542,59,0.199977278198478,0.399953856365755,1,NaN,22,420,-1,-5.93064625789754,0,0,0,1.78757889999542,60,160,30,2,154,133,146,144,145,160,120,,,,20,0.0738095238095238,17.1541091799317
0,1,88,20,12,1,37,1.49587350001093,25,0.199977710542347,0.399954159428792,1,NaN,22,420,17,10.0026757366234,0,0,0,1.49587350001093,-80,20,39,25,30,39,20,18,8,26,19,38,20,20,80,0.0738095238095238,17.1541091799317
-20,1,89,0,12,1,20,1.91235890000826,148,0.199977909292405,0.399952085038725,1,NaN,22,420,20,23.9462244480307,0,0,0,1.91235890000826,20,160,138,143,150,133,133,143,143,137,149,138,160,0,40,0.0738095238095238,17.1541091799317
40,1,90,0,9,1,162,1.62838889996056,67,0.199975767295756,0.399952840266956,1,NaN,22,420,-18,-14.0537755519693,0,0,0,1.62838889996056,0,40,11,33,45,54,53,35,46,40,0,,,,40,0.0738095238095238,17.1541091799317
0,1,91,60,7,1,57,1.42903970001498,123,0.199978886263645,0.399952977613014,1,NaN,22,420,-3,-1.10747969782755,0,0,0,1.42903970001498,-60,60,59,77,83,88,95,60,60,,,,,,60,0.0738095238095238,17.1541091799317
-20,1,92,60,9,1,66,1.38745989999734,46,0.199974611524441,0.399955601683663,1,NaN,22,420,6,7.89252030217245,0,0,0,1.38745989999734,0,40,89,70,92,75,58,37,49,40,60,,,,20,0.0738095238095238,17.1541091799317
0,1,93,20,7,1,28,1.37924490001751,61,0.199976042037763,0.399955965220995,1,NaN,22,420,8,1.00267573662336,0,0,0,1.37924490001751,40,20,42,26,33,29,43,20,20,,,,,,40,0.0738095238095238,17.1541091799317
-20,1,94,140,9,1,141,1.2627397000324,164,0.19997587818135,0.399955300866471,1,NaN,22,420,1,3.32106692378074,0,0,0,1.2627397000324,60,120,9,8,21,0,151,130,125,120,140,,,,80,0.0738095238095238,17.1541091799317
20,1,95,60,9,1,53,1.51287470001262,12,0.199975460179202,0.399950615110962,1,NaN,22,420,-7,-5.10747969782755,0,0,0,1.51287470001262,80,80,152,3,25,51,82,77,78,80,60,,,,60,0.0738095238095238,17.1541091799317
-60,1,96,60,7,1,54,2.96241550002014,136,0.199975807269636,0.399954761719398,1,NaN,22,420,-6,-4.10747969782755,0,0,0,2.96241550002014,0,0,174,161,147,165,162,0,60,,,,,,60,0.0738095238095238,17.1541091799317
-60,1,97,0,12,1,164,2.02066800004104,92,0.199976229744304,0.399953849827095,1,NaN,22,420,-16,-12.0537755519693,0,0,0,2.02066800004104,60,120,170,164,166,163,7,155,146,146,123,123,120,0,60,0.0738095238095238,17.1541091799317
0,1,98,100,10,1,124,1.89577860001009,107,0.199974233965622,0.399953364348039,1,NaN,22,420,24,15.1434508062484,0,0,0,1.89577860001009,80,100,131,145,160,147,136,125,111,103,100,100,,,80,0.0738095238095238,17.1541091799317
20,1,99,40,8,1,55,2.06258010002784,49,0.199977546479204,0.399951560371846,1,NaN,22,420,15,14.2744847547025,0,0,0,2.06258010002784,60,60,56,81,57,56,55,48,60,40,,,,,40,0.0738095238095238,17.1541091799317
40,1,100,20,9,1,27,1.43782799999462,100,0.199976549464433,0.399953382807629,1,NaN,22,420,7,0.00267573662336268,0,0,0,1.43782799999462,20,60,156,131,120,115,102,78,65,60,20,,,,20,0.0738095238095238,17.1541091799317
-20,1,101,20,4,1,29,1.05441539996536,36,0.199975336334319,0.399954437249107,1,NaN,22,420,9,2.00267573662336,0,0,0,1.05441539996536,0,0,22,4,0,20,,,,,,,,,20,0.0738095238095238,17.1541091799317
-20,1,102,100,12,1,114,1.25432820001151,39,0.199977070292031,0.399954654882701,1,NaN,22,420,14,5.14345080624844,0,0,0,1.25432820001151,-80,80,40,37,39,36,29,29,23,47,55,79,80,100,60,0.0738095238095238,17.1541091799317
-20,1,103,160,5,1,161,2.062772699981,51,0.199977784161456,0.399952531314921,1,NaN,22,420,1,13.4860599813786,0,0,0,2.062772699981,-60,140,155,138,159,140,160,,,,,,,,40,0.0738095238095238,17.1541091799317
60,1,104,40,9,1,46,1.88756390003255,147,0.199979040914008,0.399954109633755,1,NaN,22,420,6,5.27448475470254,0,0,0,1.88756390003255,-60,100,62,74,73,73,86,99,101,100,40,,,,60,0.0738095238095238,17.1541091799317
0,1,105,160,6,1,147,2.29579080000985,11,0.199978789615367,0.399953072327965,1,NaN,22,420,-13,-0.513940018621382,0,0,0,2.29579080000985,60,160,141,163,166,161,160,160,,,,,,,60,0.0738095238095238,17.1541091799317
0,2,106,120,11,0,121,3.04564460000256,36,0.199976963647218,0.399953828124456,1,NaN,22,420,1,NaN,0,0,1,NaN,40,120,153,144,179,150,44,159,85,7,86,120,120,,40,0.0738095238095238,17.1541091799317
60,2,107,140,4,0,128,0.904371899960097,128,0.199974273127737,0.399954888227512,1,NaN,22,420,-12,-9.67893307621926,0,0,0,0.904371899960097,-20,20,75,49,20,140,,,,,,,,,80,0.0738095238095238,17.1541091799317
40,2,108,60,5,0,68,2.17923690000316,47,0.199977603752632,0.399954563751817,1,NaN,22,420,8,9.89252030217245,0,0,0,2.17923690000316,80,100,66,121,153,100,60,,,,,,,,40,0.0738095238095238,17.1541091799317
-40,2,109,80,4,0,75,1.32113090000348,26,0.199973190086894,0.399956090084743,1,NaN,22,420,-5,-2.11247677167816,0,0,0,1.32113090000348,-20,40,91,1,40,80,,,,,,,,,20,0.0738095238095238,17.1541091799317
-20,2,110,80,10,0,65,1.82092779997038,12,0.199975658103358,0.399954749422614,1,NaN,22,420,-15,-12.1124767716782,0,0,0,1.82092779997038,0,60,80,147,164,15,156,133,45,16,60,80,,,20,0.0738095238095238,17.1541091799317
20,2,111,0,5,0,65,1.4628363000229,7,0.199978278903291,0.399952418135945,1,NaN,22,420,65,NaN,0,1,0,NaN,80,20,70,28,75,20,0,,,,,,,,60,0.0738095238095238,17.1541091799317
-40,2,112,140,8,0,137,1.90430729999207,14,0.199977643882448,0.399954059917945,1,NaN,22,420,-3,-0.678933076219258,1,0,0,1.90430729999207,40,100,15,28,50,124,151,128,100,140,,,,,80,0.0738095238095238,17.1541091799317
60,2,113,140,7,0,150,1.68748840002809,84,0.199979731264258,0.399953099192187,1,NaN,22,420,10,12.3210669237807,0,0,0,1.68748840002809,0,20,70,98,11,29,86,20,140,,,,,,60,0.0738095238095238,17.1541091799317
60,2,114,40,5,0,46,1.58755940000992,173,0.199976226466242,0.399953490530606,1,NaN,22,420,6,5.27448475470254,0,0,0,1.58755940000992,-80,100,154,96,169,100,40,,,,,,,,40,0.0738095238095238,17.1541091799317
20,2,115,60,5,0,65,2.28750169998966,70,0.199975536239799,0.399953710939735,1,NaN,22,420,5,6.89252030217245,0,0,0,2.28750169998966,-20,80,88,50,178,80,60,,,,,,,,40,0.0738095238095238,17.1541091799317
-20,2,116,100,12,0,108,1.52910019998671,61,0.199975108664754,0.399954257528104,1,NaN,22,420,8,-0.856549193751562,0,0,0,1.52910019998671,-40,80,35,0,28,163,37,132,22,87,112,123,80,100,20,0.0738095238095238,17.1541091799317
-40,2,117,60,8,0,59,1.66236299998127,86,0.199976804491598,0.399954108943348,1,NaN,22,420,-1,0.892520302172447,0,0,0,1.66236299998127,40,20,116,2,124,48,111,155,20,60,,,,,80,0.0738095238095238,17.1541091799317
0,2,118,140,5,0,122,1.83767959999386,27,0.199975015141536,0.399952739593573,1,NaN,22,420,-18,-15.6789330762193,0,0,0,1.83767959999386,-80,140,34,48,95,140,140,,,,,,,,80,0.0738095238095238,17.1541091799317
-60,2,119,80,11,0,62,2.00409920001402,159,0.19997809208739,0.399952281319367,1,NaN,22,420,-18,-15.1124767716782,0,0,0,2.00409920001402,60,20,39,53,71,37,26,120,47,11,53,20,80,,60,0.0738095238095238,17.1541091799317
0,2,120,0,7,0,177,2.92078440001933,110,0.199977125066133,0.399953400832601,1,NaN,22,420,-3,0.946224448030667,0,0,0,2.92078440001933,80,0,2,159,49,139,42,0,0,,,,,,80,0.0738095238095238,17.1541091799317
-60,2,121,120,4,0,129,1.59571709996089,62,0.199975784882554,0.399953190120868,1,NaN,22,420,9,4.06935374210246,0,0,0,1.59571709996089,60,60,175,58,60,120,,,,,,,,,60,0.0738095238095238,17.1541091799317
0,2,122,60,6,0,74,1.39563600003021,68,0.199978499324061,0.399954280835421,1,NaN,22,420,14,15.8925203021724,0,0,0,1.39563600003021,60,60,59,13,49,139,60,60,,,,,,,60,0.0738095238095238,17.1541091799317
-20,2,123,100,4,0,121,2.08145559998229,178,0.199972751463065,0.399955188666354,1,NaN,22,420,21,12.1434508062484,0,0,0,2.08145559998229,-40,80,114,12,80,100,,,,,,,,,20,0.0738095238095238,17.1541091799317
0,2,124,120,4,0,114,1.30664369999431,137,0.199977461321396,0.399953927844763,1,NaN,22,420,-6,-10.9306462578975,0,0,0,1.30664369999431,-20,120,70,172,120,120,,,,,,,,,20,0.0738095238095238,17.1541091799317
-60,2,125,20,12,0,21,1.48156330001075,39,0.199975010361716,0.399955713044619,1,NaN,22,420,1,-5.99732426337664,0,0,0,1.48156330001075,-80,140,167,7,103,129,32,99,140,178,61,70,140,20,20,0.0738095238095238,17.1541091799317
40,2,126,60,11,0,54,2.36479030002374,123,0.199976731552107,0.399953720069871,1,NaN,22,420,-6,-4.10747969782755,0,0,0,2.36479030002374,-40,100,91,122,68,135,25,129,72,112,62,100,60,,80,0.0738095238095238,17.1541091799317
-60,2,127,20,7,0,30,2.23988400003873,105,0.199974619392638,0.399955202160137,1,NaN,22,420,10,3.00267573662336,0,0,0,2.23988400003873,40,140,48,175,33,71,86,140,20,,,,,,80,0.0738095238095238,17.1541091799317
-40,2,128,140,4,0,140,1.33175579999806,9,0.199976720308769,0.399954920721939,1,NaN,22,420,0,2.32106692378074,0,0,0,1.33175579999806,60,100,98,30,100,140,,,,,,,,,80,0.0738095238095238,17.1541091799317
-40,2,129,60,11,0,62,2.61484729999211,144,0.199977563112043,0.399953776996964,1,NaN,22,420,2,3.89252030217245,0,0,0,2.61484729999211,80,20,125,151,111,39,132,70,37,153,3,20,60,,60,0.0738095238095238,17.1541091799317
20,2,130,140,10,0,141,1.53990849998081,50,0.199976940004854,0.399954027723288,1,NaN,22,420,1,3.32106692378074,0,0,0,1.53990849998081,-80,160,60,122,66,102,174,119,88,57,160,140,,,80,0.0738095238095238,17.1541091799317
-60,2,131,0,8,0,173,2.73129009996774,40,0.199976062744099,0.39995337829896,1,NaN,22,420,-7,-3.05377555196933,0,0,0,2.73129009996774,-40,120,2,99,65,52,23,106,120,0,,,,,20,0.0738095238095238,17.1541091799317
20,2,132,40,7,0,31,1.88992219994543,146,0.199980584912867,0.399949866280492,1,NaN,22,420,-9,-9.72551524529746,0,0,0,1.88992219994543,-40,60,57,81,8,119,170,60,40,,,,,,60,0.0738095238095238,17.1541091799317
-60,2,133,0,6,0,26,2.62325790000614,5,0.199978425167501,0.399952609412139,1,NaN,22,420,26,NaN,0,1,0,NaN,40,120,67,155,141,25,120,0,,,,,,,80,0.0738095238095238,17.1541091799317
20,2,134,80,12,0,75,2.70650470000692,166,0.199976045124155,0.399953769980736,1,NaN,22,420,-5,-2.11247677167816,0,0,0,2.70650470000692,-80,100,170,52,117,108,73,87,165,41,96,60,100,80,80,0.0738095238095238,17.1541091799317
0,2,135,40,8,0,36,2.12345699995058,24,0.199975212039135,0.399955112487078,1,NaN,22,420,-4,-4.72551524529746,0,0,0,2.12345699995058,40,40,135,102,162,42,144,84,40,40,,,,,40,0.0738095238095238,17.1541091799317
60,2,136,80,11,0,71,1.42922019999241,26,0.199976354546379,0.3999552649594,1,NaN,22,420,-9,-6.11247677167816,0,0,0,1.42922019999241,-40,140,99,14,176,153,99,124,15,39,66,140,80,,80,0.0738095238095238,17.1541091799317
20,2,137,0,10,0,172,1.58748779998859,7,0.199975621362682,0.399955739028519,1,NaN,22,420,-8,-4.05377555196933,0,0,0,1.58748779998859,80,20,3,141,163,26,4,123,167,140,20,0,,,60,0.0738095238095238,17.1541091799317
0,2,138,0,4,0,168,2.69590589997824,115,0.199979533514124,0.399951780636911,1,NaN,22,420,-12,-8.05377555196933,0,0,0,2.69590589997824,0,0,163,70,0,0,,,,,,,,,0,0.0738095238095238,17.1541091799317
40,2,139,0,5,0,64,2.62084699998377,99,0.199976366432384,0.399953105673194,1,NaN,22,420,64,NaN,0,1,0,NaN,0,40,170,130,93,40,0,,,,,,,,40,0.0738095238095238,17.1541091799317
40,2,140,140,8,0,144,0.987771999964025,139,0.199979383483878,0.399952928288258,1,NaN,22,420,4,6.32106692378074,1,0,0,0.987771999964025,40,0,88,8,52,87,57,97,0,140,,,,,0,0.0738095238095238,17.1541091799317
0,2,141,120,5,0,133,1.47129169997061,109,0.199977175064851,0.399951107567176,1,NaN,22,420,13,8.06935374210246,0,0,0,1.47129169997061,20,120,178,31,138,120,120,,,,,,,,20,0.0738095238095238,17.1541091799317
60,2,142,40,7,0,38,2.02091360004852,117,0.199976158752439,0.399951786260187,1,NaN,22,420,-2,-2.72551524529746,0,0,0,2.02091360004852,80,100,109,115,57,131,163,100,40,,,,,,20,0.0738095238095238,17.1541091799317
40,2,143,80,10,0,60,1.59581059997436,93,0.199979558499763,0.399953824887052,1,NaN,22,420,-20,-17.1124767716782,0,0,0,1.59581059997436,-40,120,120,148,160,142,17,76,140,62,120,80,,,80,0.0738095238095238,17.1541091799317
20,2,144,100,4,0,124,1.38779779995093,51,0.199975258001359,0.39995234530943,1,NaN,22,420,24,15.1434508062484,0,0,0,1.38779779995093,-20,120,158,87,120,100,,,,,,,,,40,0.0738095238095238,17.1541091799317
20,2,145,20,7,0,24,1.77925840002717,135,0.199976090832414,0.399952602705785,1,NaN,22,420,4,-2.99732426337664,0,0,0,1.77925840002717,80,40,156,48,92,153,18,40,20,,,,,,60,0.0738095238095238,17.1541091799317
-20,2,146,20,11,0,28,1.92088879999937,150,0.199976991110651,0.399952903072434,1,NaN,22,420,8,1.00267573662336,0,0,0,1.92088879999937,0,0,59,162,43,169,140,86,50,172,132,0,20,,20,0.0738095238095238,17.1541091799317
-40,2,147,140,5,0,140,1.66267990000779,53,0.199978238483891,0.399953897343948,1,NaN,22,420,0,2.32106692378074,0,0,0,1.66267990000779,60,100,42,82,146,100,140,,,,,,,,80,0.0738095238095238,17.1541091799317
-20,2,148,20,7,0,34,2.72083710000152,38,0.199977985732923,0.39995162773578,1,NaN,22,420,14,7.00267573662336,0,0,0,2.72083710000152,-60,0,99,88,158,171,29,0,20,,,,,,40,0.0738095238095238,17.1541091799317
-40,2,149,40,10,0,36,1.57092729996657,94,0.199974863044918,0.399954958091257,1,NaN,22,420,-4,-4.72551524529746,0,0,0,1.57092729996657,-20,0,22,176,20,157,179,75,92,165,0,40,,,20,0.0738095238095238,17.1541091799317
-40,2,150,60,8,0,62,1.42926070000976,14,0.199975289891881,0.399954135129519,1,NaN,22,420,2,3.89252030217245,0,0,0,1.42926070000976,-20,20,173,83,64,67,51,159,20,60,,,,,20,0.0738095238095238,17.1541091799317
0,2,151,100,8,0,113,1.60432809998747,53,0.199977221724112,0.399952953739557,1,NaN,22,420,13,4.14345080624844,0,0,0,1.60432809998747,-40,100,39,64,149,174,81,94,100,100,,,,,40,0.0738095238095238,17.1541091799317
-60,2,152,120,5,0,117,1.37108140002238,65,0.199979372438975,0.399948407546617,1,NaN,22,420,-3,-7.93064625789754,0,0,0,1.37108140002238,-20,60,18,59,151,60,120,,,,,,,,40,0.0738095238095238,17.1541091799317
60,2,153,120,12,0,126,1.42073150002398,76,0.199977637409271,0.399953583488241,1,NaN,22,420,6,1.06935374210246,0,0,0,1.42073150002398,0,0,0,131,57,170,121,21,85,179,33,123,0,120,60,0.0738095238095238,17.1541091799317
40,2,154,120,5,0,118,1.92910140001914,1,0.199976381135639,0.399953681859188,1,NaN,22,420,-2,-6.93064625789754,0,0,0,1.92910140001914,0,160,74,44,127,160,120,,,,,,,,40,0.0738095238095238,17.1541091799317
40,2,155,80,6,0,81,1.92102790001081,93,0.19997632674252,0.399953546516675,1,NaN,22,420,1,3.88752322832184,0,0,0,1.92102790001081,40,120,172,82,137,66,120,80,,,,,,,0,0.0738095238095238,17.1541091799317
-40,2,156,120,10,0,124,2.17076279997127,56,0.199976623791736,0.399954242643435,1,NaN,22,420,4,-0.930646257897538,0,0,0,2.17076279997127,-40,80,45,13,105,71,160,115,31,110,80,120,,,0,0.0738095238095238,17.1541091799317
0,2,157,120,4,0,124,1.3794188000029,81,0.19997647216951,0.399954999986221,1,NaN,22,420,4,-0.930646257897538,0,0,0,1.3794188000029,0,120,55,143,120,120,,,,,,,,,0,0.0738095238095238,17.1541091799317
-20,2,158,20,11,0,32,1.42070960003184,84,0.199978700352155,0.399953512183856,1,NaN,22,420,12,5.00267573662336,0,0,0,1.42070960003184,-80,0,158,177,157,178,125,83,163,151,52,0,20,,60,0.0738095238095238,17.1541091799317
40,2,159,80,6,0,58,2.02924940001685,167,0.199978132693407,0.399956044352924,1,NaN,22,420,-22,-19.1124767716782,0,0,0,2.02924940001685,-60,120,32,44,27,130,120,80,,,,,,,80,0.0738095238095238,17.1541091799317
-20,2,160,100,5,0,91,1.64615310000954,144,0.199975798488595,0.39995668225456,1,NaN,22,420,-9,-17.8565491937516,0,0,0,1.64615310000954,-20,80,124,23,44,80,100,,,,,,,,0,0.0738095238095238,17.1541091799317
-20,2,161,100,5,0,109,1.14600810001139,67,0.19997864755569,0.39995240526041,1,NaN,22,420,9,0.143450806248438,0,0,0,1.14600810001139,0,80,81,147,39,80,100,,,,,,,,20,0.0738095238095238,17.1541091799317
0,2,162,120,7,0,119,1.47924229997443,52,0.199977983554293,0.39995460460029,1,NaN,22,420,-1,-5.93064625789754,0,0,0,1.47924229997443,-20,120,10,97,149,9,177,120,120,,,,,,20,0.0738095238095238,17.1541091799317
40,2,163,20,12,0,23,1.71257730002981,93,0.199975171213737,0.399951975171765,1,NaN,22,420,3,-3.99732426337664,0,0,0,1.71257730002981,-80,60,38,11,128,164,98,178,106,16,32,131,60,20,60,0.0738095238095238,17.1541091799317
40,2,164,140,10,0,130,1.57085600000573,113,0.199979316600366,0.399951774353394,1,NaN,22,420,-10,-7.67893307621926,0,0,0,1.57085600000573,60,0,30,171,130,26,129,65,3,88,0,140,,,20,0.0738095238095238,17.1541091799317
60,2,165,40,12,0,42,1.44574809999904,104,0.199975892925674,0.399955037733889,1,NaN,22,420,2,1.27448475470254,0,0,0,1.44574809999904,-80,100,148,115,68,132,54,102,46,172,147,18,100,40,40,0.0738095238095238,17.1541091799317
20,2,166,160,10,0,139,1.21264360001078,96,0.199976594379405,0.399953850544989,1,NaN,22,420,-21,-8.51394001862138,0,0,0,1.21264360001078,60,0,150,50,164,130,55,79,156,35,0,160,,,40,0.0738095238095238,17.1541091799317
-20,2,167,60,6,0,60,1.45421120000537,53,0.199977380184767,0.39995259057226,1,NaN,22,420,0,1.89252030217245,0,0,0,1.45421120000537,-80,40,178,75,168,100,40,60,,,,,,,60,0.0738095238095238,17.1541091799317
20,2,168,160,11,0,141,1.47085609997157,58,0.199976515104275,0.399954374424521,1,NaN,22,420,-19,-6.51394001862138,0,0,0,1.47085609997157,80,0,40,93,8,4,149,28,143,82,121,0,160,,60,0.0738095238095238,17.1541091799317
40,2,169,80,5,0,68,1.9542277000146,114,0.199978184164502,0.399952315841801,1,NaN,22,420,-12,-9.11247677167816,0,0,0,1.9542277000146,80,120,127,0,155,120,80,,,,,,,,40,0.0738095238095238,17.1541091799317
60,2,170,120,5,0,128,1.36267230001977,55,0.199976390937809,0.399952732829843,1,NaN,22,420,8,3.06935374210246,0,0,0,1.36267230001977,-40,0,134,174,103,0,120,,,,,,,,80,0.0738095238095238,17.1541091799317
60,2,171,0,8,0,8,2.07085780001944,118,0.199975661562348,0.399958352099929,1,NaN,22,420,8,11.9462244480307,0,0,0,2.07085780001944,-60,60,108,151,51,162,53,13,60,0,,,,,60,0.0738095238095238,17.1541091799317
-20,2,172,100,7,0,109,2.49576540000271,83,0.199974223206352,0.399953437719627,1,NaN,22,420,9,0.143450806248438,0,0,0,2.49576540000271,80,80,13,87,48,3,96,80,100,,,,,,80,0.0738095238095238,17.1541091799317
0,2,173,140,12,0,135,2.43742590001784,21,0.199978986483378,0.399951103773977,1,NaN,22,420,-5,-2.67893307621926,0,0,0,2.43742590001784,-40,140,173,128,172,149,108,76,95,34,114,173,140,140,40,0.0738095238095238,17.1541091799317
-40,2,174,160,10,0,148,1.29597259999719,111,0.199979397939751,0.399952910927823,1,NaN,22,420,-12,0.486059981378618,0,0,0,1.29597259999719,-20,120,151,112,138,39,161,55,170,23,120,160,,,20,0.0738095238095238,17.1541091799317
-60,2,175,140,10,0,151,2.85411740001291,170,0.199978007533355,0.399954676243942,1,NaN,22,420,11,13.3210669237807,0,0,0,2.85411740001291,20,80,153,141,101,52,114,29,163,23,80,140,,,80,0.0738095238095238,17.1541091799317
60,2,176,40,11,0,43,1.21218460000819,88,0.199978768629742,0.399950953158127,1,NaN,22,420,3,2.27448475470254,0,0,0,1.21218460000819,-80,100,40,159,97,28,170,21,80,153,49,100,40,,40,0.0738095238095238,17.1541091799317
-40,2,177,140,10,0,139,1.86243179999292,25,0.199976956570754,0.399953602300957,1,NaN,22,420,-1,1.32106692378074,0,0,0,1.86243179999292,80,100,103,176,113,92,162,116,70,44,100,140,,,60,0.0738095238095238,17.1541091799317
60,2,178,40,11,0,50,2.16245290002553,154,0.199976359875026,0.399954287647481,1,NaN,22,420,10,9.27448475470254,0,0,0,2.16245290002553,-80,100,179,33,150,55,81,156,77,89,140,100,40,,40,0.0738095238095238,17.1541091799317
-20,2,179,60,5,0,48,1.38769770000363,88,0.199978751712479,0.399954845267348,1,NaN,22,420,-12,-10.1074796978276,0,0,0,1.38769770000363,-20,40,101,137,83,40,60,,,,,,,,0,0.0738095238095238,17.1541091799317
-40,2,180,20,12,0,44,1.30428599996958,37,0.199975981129683,0.399952314925031,1,NaN,22,420,24,17.0026757366234,0,0,0,1.30428599996958,40,160,97,26,88,159,26,154,55,27,165,19,160,20,80,0.0738095238095238,17.1541091799317
60,2,181,40,11,0,40,1.78743419999955,124,0.199977264676074,0.399953425893645,1,NaN,22,420,0,-0.725515245297458,0,0,0,1.78743419999955,-20,100,159,117,67,30,144,104,147,82,159,100,40,,80,0.0738095238095238,17.1541091799317
20,2,182,60,11,0,74,1.08753239997895,74,0.199974289724857,0.399954802901696,1,NaN,22,420,14,15.8925203021724,0,0,0,1.08753239997895,-20,80,126,29,95,74,64,24,168,89,11,80,60,,40,0.0738095238095238,17.1541091799317
-20,2,183,40,12,0,55,1.31240519997664,14,0.199978233640043,0.399952244804202,1,NaN,22,420,15,14.2744847547025,0,0,0,1.31240519997664,20,20,118,51,22,112,47,42,6,108,82,8,20,40,40,0.0738095238095238,17.1541091799317
-40,2,184,140,12,0,144,1.33750620001229,79,0.199976838048315,0.399954273433347,1,NaN,22,420,4,6.32106692378074,0,0,0,1.33750620001229,80,100,73,10,162,94,43,26,109,58,109,146,100,140,60,0.0738095238095238,17.1541091799317
20,2,185,160,4,0,154,1.9959146999754,140,0.199975184514187,0.399950533435913,1,NaN,22,420,-6,6.48605998137862,0,0,0,1.9959146999754,-20,0,111,154,0,160,,,,,,,,,40,0.0738095238095238,17.1541091799317
-60,2,186,120,9,0,144,1.82089420000557,48,0.199973775468405,0.399953515521095,1,NaN,22,420,24,19.0693537421025,0,0,0,1.82089420000557,40,60,79,124,94,50,106,34,0,60,120,,,,80,0.0738095238095238,17.1541091799317
0,2,187,80,5,0,128,2.39594070002204,9,0.199976410577074,0.399954544496723,1,NaN,22,420,48,NaN,0,1,0,NaN,40,80,179,54,132,80,80,,,,,,,,40,0.0738095238095238,17.1541091799317
-60,2,188,100,10,0,118,1.8041531999479,14,0.199977627192857,0.399952851497801,1,NaN,22,420,18,9.14345080624844,1,0,0,1.8041531999479,-20,40,72,54,19,44,34,10,51,45,40,100,,,40,0.0738095238095238,17.1541091799317
60,2,189,0,7,0,178,2.10417740000412,55,0.199978276031158,0.399954449551712,1,NaN,22,420,-2,1.94622444803067,0,0,0,2.10417740000412,-80,60,18,113,72,106,100,60,0,,,,,,40,0.0738095238095238,17.1541091799317
60,2,190,80,11,0,51,2.05409089999739,54,0.199974084558727,0.399955919896125,1,NaN,22,420,-29,NaN,0,1,0,NaN,-80,140,78,39,122,29,90,130,73,16,87,140,80,,40,0.0738095238095238,17.1541091799317
40,2,191,120,5,0,125,1.5877477999893,82,0.199979324499145,0.399951032840181,1,NaN,22,420,5,0.0693537421024621,0,0,0,1.5877477999893,-40,160,72,161,65,160,120,,,,,,,,80,0.0738095238095238,17.1541091799317
-40,2,192,0,4,0,174,1.7209316000226,109,0.19996441747935,0.399953411761089,1,NaN,22,420,-6,-2.05377555196933,0,0,0,1.7209316000226,-60,140,0,93,140,0,,,,,,,,,20,0.0738095238095238,17.1541091799317
-60,2,193,80,7,0,67,2.10427539999364,2,0.199977804025236,0.399954534252174,1,NaN,22,420,-13,-10.1124767716782,0,0,0,2.10427539999364,-80,20,108,38,156,54,112,20,80,,,,,,20,0.0738095238095238,17.1541091799317
20,2,194,120,8,0,134,1.85386589996051,178,0.199975181159971,0.399955006592791,1,NaN,22,420,14,9.06935374210246,0,0,0,1.85386589996051,-40,140,100,31,6,167,77,45,140,120,,,,,60,0.0738095238095238,17.1541091799317
0,2,195,140,4,0,120,1.12945690000197,132,0.199976272153435,0.399954354710644,1,NaN,22,420,-20,-17.6789330762193,0,0,0,1.12945690000197,-20,140,85,121,140,140,,,,,,,,,20,0.0738095238095238,17.1541091799317
-20,2,196,40,5,0,138,2.73756259999936,11,0.199977852066513,0.399951969087124,1,NaN,22,420,-82,NaN,0,1,0,NaN,-80,20,122,46,49,20,40,,,,,,,,60,0.0738095238095238,17.1541091799317
20,2,197,140,6,0,122,1.687318900018,146,0.199979450961109,0.39995327826667,1,NaN,22,420,-18,-15.6789330762193,1,0,0,1.687318900018,80,160,0,59,146,27,160,140,,,,,,,60,0.0738095238095238,17.1541091799317
0,2,198,120,5,0,129,1.53768260002835,34,0.199976256198715,0.399955629417673,1,NaN,22,420,9,4.06935374210246,0,0,0,1.53768260002835,20,120,50,173,63,120,120,,,,,,,,20,0.0738095238095238,17.1541091799317
-60,2,199,120,4,0,44,1.98772179998923,102,0.199978720746003,0.399951575949672,1,NaN,22,420,-76,NaN,0,1,0,NaN,0,60,167,34,60,120,,,,,,,,,60,0.0738095238095238,17.1541091799317
-60,2,200,0,4,0,166,1.66276789997937,62,0.19997825237806,0.399952349980595,1,NaN,22,420,-14,-10.0537755519693,1,0,0,1.66276789997937,-60,120,57,98,120,0,,,,,,,,,0,0.0738095238095238,17.1541091799317
-20,2,201,0,11,0,174,2.15415710001253,45,0.199978765190198,0.399954540120565,1,NaN,22,420,-6,-2.05377555196933,0,0,0,2.15415710001253,0,160,53,98,123,45,152,83,170,101,116,160,0,,20,0.0738095238095238,17.1541091799317
-60,2,202,40,5,0,38,1.65458490001038,153,0.199974823417142,0.399954218848143,1,NaN,22,420,-2,-2.72551524529746,0,0,0,1.65458490001038,-40,160,52,143,71,160,40,,,,,,,,20,0.0738095238095238,17.1541091799317
60,2,203,140,6,0,138,1.23779049998848,160,0.199979225493735,0.399951745280608,1,NaN,22,420,-2,0.321066923780742,0,0,0,1.23779049998848,80,20,167,111,44,103,20,140,,,,,,,20,0.0738095238095238,17.1541091799317
-60,2,204,20,12,0,48,2.47073290002299,0,0.199976893563871,0.399954882702635,1,NaN,22,420,28,21.0026757366234,0,0,0,2.47073290002299,-60,140,116,52,162,113,158,87,25,69,161,50,140,20,0,0.0738095238095238,17.1541091799317
-20,2,205,100,4,0,109,2.56252669997048,121,0.199980550503824,0.399951153740403,1,NaN,22,420,9,0.143450806248438,0,0,0,2.56252669997048,-80,80,5,7,80,100,,,,,,,,,60,0.0738095238095238,17.1541091799317
40,2,206,140,9,0,153,1.91245109995361,17,0.199978800438758,0.399954384897784,1,NaN,22,420,13,15.3210669237807,0,0,0,1.91245109995361,-40,0,155,73,97,162,173,96,159,0,140,,,,80,0.0738095238095238,17.1541091799317
-40,2,207,120,5,0,134,1.81278209999437,100,0.199977984034922,0.399955084919929,1,NaN,22,420,14,9.06935374210246,0,0,0,1.81278209999437,20,80,168,150,164,80,120,,,,,,,,60,0.0738095238095238,17.1541091799317
20,2,208,20,9,0,24,1.47922810004093,119,0.19997525621309,0.3999553920132,1,NaN,22,420,4,-2.99732426337664,0,0,0,1.47922810004093,-80,40,150,15,94,3,140,111,172,40,20,,,,80,0.0738095238095238,17.1541091799317
40,2,209,160,6,0,138,3.95397470000898,64,0.199977520756268,0.399952759452087,1,NaN,22,420,-22,-9.51394001862138,0,0,0,3.95397470000898,40,20,139,25,90,151,20,160,,,,,,,0,0.0738095238095238,17.1541091799317
40,2,210,160,7,0,134,2.31259330001194,148,0.199973691362954,0.399956514302175,1,NaN,22,420,-26,-13.5139400186214,0,0,0,2.31259330001194,0,20,128,29,2,33,136,20,160,,,,,,40,0.0738095238095238,17.1541091799317
-20,3,211,100,4,1,104,1.62121819995809,18,0.199977884913096,0.399949882077635,1,NaN,22,420,4,NaN,0,0,1,NaN,60,80,76,68,80,100,,,,,,,,,80,0.0738095238095238,17.1541091799317
-20,3,212,0,6,1,154,2.02934289997211,12,0.199979725759476,0.399953308195109,1,NaN,22,420,-26,-22.0537755519693,0,0,0,2.02934289997211,-80,160,125,117,148,172,160,0,,,,,,,60,0.0738095238095238,17.1541091799317
0,3,213,100,8,1,101,1.67093240004033,167,0.199974396935431,0.399954766289738,1,NaN,22,420,1,-7.85654919375156,0,0,0,1.67093240004033,80,100,91,102,121,126,120,95,100,100,,,,,80,0.0738095238095238,17.1541091799317
40,3,214,80,6,1,88,1.30431669997051,61,0.199976251868065,0.399954866647022,1,NaN,22,420,8,10.8875232283218,0,0,0,1.30431669997051,20,120,141,141,150,144,120,80,,,,,,,20,0.0738095238095238,17.1541091799317
60,3,215,40,5,1,49,1.05446249997476,50,0.199988678493537,0.399945784499869,1,NaN,22,420,9,8.27448475470254,0,0,0,1.05446249997476,40,100,95,115,114,100,40,,,,,,,,20,0.0738095238095238,17.1541091799317
-20,3,216,160,11,1,160,2.5125296000042,76,0.199975526955148,0.399953218351584,1,NaN,22,420,0,12.4860599813786,0,0,0,2.5125296000042,60,140,92,115,97,95,132,119,119,130,145,140,160,,80,0.0738095238095238,17.1541091799317
20,3,217,20,6,1,17,1.18760649999604,83,0.199975234281737,0.399952484905953,1,NaN,22,420,-3,-9.99732426337664,0,0,0,1.18760649999604,-40,40,122,88,72,57,40,20,,,,,,,60,0.0738095238095238,17.1541091799317
-60,3,218,160,11,1,138,1.67086979997111,175,0.199977554375602,0.399952431881419,1,NaN,22,420,-22,-9.51394001862138,0,0,0,1.67086979997111,40,100,87,104,112,103,118,114,116,121,112,100,160,,80,0.0738095238095238,17.1541091799317
20,3,219,20,11,1,6,1.88755970000057,36,0.199976711343466,0.399955837722783,1,NaN,22,420,-14,-20.9973242633766,0,0,0,1.88755970000057,-40,40,33,37,32,24,34,36,31,36,58,40,20,,60,0.0738095238095238,17.1541091799317
0,3,220,100,6,1,120,1.96269519999623,95,0.199976721710603,0.399954292108305,1,NaN,22,420,20,11.1434508062484,0,0,0,1.96269519999623,-80,100,132,110,108,107,100,100,,,,,,,80,0.0738095238095238,17.1541091799317
20,3,221,80,10,1,123,1.63761219999287,87,0.199976925301598,0.399954240932129,1,NaN,22,420,43,NaN,0,1,0,NaN,20,100,62,35,16,72,80,113,107,109,100,80,,,0,0.0738095238095238,17.1541091799317
-40,3,222,100,5,1,101,1.37101410003379,142,0.199977701087482,0.399953025288414,1,NaN,22,420,1,-7.85654919375156,0,0,0,1.37101410003379,-20,60,45,73,48,60,100,,,,,,,,20,0.0738095238095238,17.1541091799317
-60,3,223,100,11,1,99,1.50422930001514,129,0.199976141527507,0.399955316806551,1,NaN,22,420,-1,-9.85654919375156,0,0,0,1.50422930001514,0,40,13,22,28,54,63,63,53,60,51,40,100,,60,0.0738095238095238,17.1541091799317
0,3,224,80,7,1,108,2.04577730002347,29,0.199981238551637,0.399952296483597,1,NaN,22,420,28,NaN,0,1,0,NaN,20,80,77,80,77,99,82,80,80,,,,,,20,0.0738095238095238,17.1541091799317
-40,3,225,120,8,1,114,1.51264719996834,84,0.199977997857786,0.399956052824564,1,NaN,22,420,-6,-10.9306462578975,0,0,0,1.51264719996834,-40,80,54,75,81,60,58,83,80,120,,,,,0,0.0738095238095238,17.1541091799317
-40,3,226,60,7,1,65,1.6542269999627,1,0.199970724518477,0.399955763880696,1,NaN,22,420,5,6.89252030217245,0,0,0,1.6542269999627,60,20,5,174,171,18,20,20,60,,,,,,80,0.0738095238095238,17.1541091799317
-60,3,227,80,11,1,64,1.97904070001096,17,0.199976133960511,0.399953761222688,1,NaN,22,420,-16,-13.1124767716782,0,0,0,1.97904070001096,-20,20,134,142,174,175,168,176,171,179,1,20,80,,40,0.0738095238095238,17.1541091799317
60,3,228,0,7,1,8,2.37915140000405,122,0.199976950143797,0.399954388674814,1,NaN,22,420,8,11.9462244480307,0,0,0,2.37915140000405,80,60,4,16,17,12,35,60,0,,,,,,20,0.0738095238095238,17.1541091799317
40,3,229,20,9,1,15,0.962355599971488,27,0.199980189532248,0.399952325989337,1,NaN,22,420,-5,-11.9973242633766,0,0,0,0.962355599971488,-20,60,177,3,25,41,53,68,52,60,20,,,,60,0.0738095238095238,17.1541091799317
-60,3,230,100,9,1,123,1.51273229997605,78,0.199977303370057,0.399958484482745,1,NaN,22,420,23,14.1434508062484,0,0,0,1.51273229997605,-80,40,15,11,33,32,25,27,57,40,100,,,,20,0.0738095238095238,17.1541091799317
0,3,231,120,12,1,120,2.35283640003763,45,0.199977739937215,0.399953006126452,1,NaN,22,420,0,-4.93064625789754,0,0,0,2.35283640003763,-20,120,0,0,176,158,146,118,127,115,96,111,120,120,20,0.0738095238095238,17.1541091799317
-20,3,232,120,11,1,121,2.36256330000469,66,0.199977698434271,0.399952362624886,1,NaN,22,420,1,-3.93064625789754,0,0,0,2.36256330000469,0,100,155,159,10,173,160,154,119,90,102,100,120,,20,0.0738095238095238,17.1541091799317
-60,3,233,140,6,1,151,1.32925140002044,121,0.199977461636687,0.399961356277345,1,NaN,22,420,11,13.3210669237807,0,0,0,1.32925140002044,-20,80,89,87,87,97,80,140,,,,,,,40,0.0738095238095238,17.1541091799317
0,3,234,140,4,1,137,1.86261070001638,91,0.199973485403461,0.399956223118352,1,NaN,22,420,-3,-0.678933076219258,0,0,0,1.86261070001638,0,140,121,135,140,140,,,,,,,,,0,0.0738095238095238,17.1541091799317
60,3,235,60,7,1,48,1.55422990000807,89,0.199975791636721,0.399953398155048,1,NaN,22,420,-12,-10.1074796978276,0,0,0,1.55422990000807,80,120,153,164,164,158,160,120,60,,,,,,20,0.0738095238095238,17.1541091799317
-20,3,236,100,8,1,62,2.47923649998847,167,0.19997903892363,0.399951255669293,1,NaN,22,420,-38,NaN,0,1,0,NaN,-40,80,102,153,107,93,85,64,80,100,,,,,20,0.0738095238095238,17.1541091799317
20,3,237,100,11,1,97,1.93739509995794,136,0.199978312207598,0.399953935327093,1,NaN,22,420,-3,-11.8565491937516,0,0,0,1.93739509995794,0,120,143,119,130,106,119,109,106,120,103,120,100,,20,0.0738095238095238,17.1541091799317
20,3,238,120,8,1,135,1.77073980000569,38,0.199977062962716,0.399955238914117,1,NaN,22,420,15,10.0693537421025,0,0,0,1.77073980000569,-20,140,141,137,100,118,125,107,140,120,,,,,40,0.0738095238095238,17.1541091799317
60,3,239,60,11,1,55,1.78762169997208,165,0.199978271721524,0.399951646644199,1,NaN,22,420,-5,-3.10747969782755,0,0,0,1.78762169997208,60,120,50,56,42,84,98,103,94,114,124,120,60,,0,0.0738095238095238,17.1541091799317
40,3,240,160,10,1,146,1.47080930002267,53,0.199975423025899,0.399955473013688,1,NaN,22,420,-14,-1.51394001862138,0,0,0,1.47080930002267,80,20,57,44,34,44,44,26,18,14,20,160,,,40,0.0738095238095238,17.1541091799317
60,3,241,40,8,1,32,1.72917350003263,177,0.199975599978643,0.399955387729278,1,NaN,22,420,-8,-8.72551524529746,0,0,0,1.72917350003263,-60,100,98,101,108,109,116,104,100,40,,,,,60,0.0738095238095238,17.1541091799317
20,3,242,60,4,1,56,2.0875292000128,11,0.199980833014706,0.399952240113635,1,NaN,22,420,-4,-2.10747969782755,0,0,0,2.0875292000128,-20,80,57,77,80,60,,,,,,,,,40,0.0738095238095238,17.1541091799317
60,3,243,160,4,1,149,1.89589449996129,50,0.199978714153985,0.399953287749668,1,NaN,22,420,-11,1.48605998137862,0,0,0,1.89589449996129,80,40,28,41,40,160,,,,,,,,,20,0.0738095238095238,17.1541091799317
-60,3,244,60,11,1,63,2.0957792000263,30,0.199976921441372,0.399953223145779,1,NaN,22,420,3,4.89252030217245,0,0,0,2.0957792000263,-80,0,7,21,20,16,20,9,11,176,176,0,60,,20,0.0738095238095238,17.1541091799317
-60,3,245,80,12,1,60,1.77078019996407,137,0.199976360997728,0.399954167626371,1,NaN,22,420,-20,-17.1124767716782,0,0,0,1.77078019996407,-20,20,154,137,165,163,159,152,170,156,159,170,20,80,40,0.0738095238095238,17.1541091799317
-40,3,246,40,12,1,24,1.56240310001886,61,0.199977709751693,0.39995324103802,1,NaN,22,420,-16,-16.7255152452975,0,0,0,1.56240310001886,40,0,144,163,177,6,25,4,161,179,178,12,0,40,80,0.0738095238095238,17.1541091799317
-20,3,247,20,7,1,21,2.21258160000434,64,0.199977305110744,0.399952157159402,1,NaN,22,420,1,-5.99732426337664,0,0,0,2.21258160000434,20,0,25,22,20,11,20,0,20,,,,,,40,0.0738095238095238,17.1541091799317
60,3,248,120,11,1,124,1.97089210001286,107,0.199974545452278,0.399954768590925,1,NaN,22,420,4,-0.930646257897538,0,0,0,1.97089210001286,80,0,139,141,134,136,137,169,177,172,170,0,120,,20,0.0738095238095238,17.1541091799317
20,3,249,80,10,1,93,1.70423000003211,44,0.199972620193148,0.399953030736651,1,NaN,22,420,13,15.8875232283218,0,0,0,1.70423000003211,40,100,137,129,133,128,148,115,119,108,100,80,,,20,0.0738095238095238,17.1541091799317
-60,3,250,100,9,1,116,1.63768210000126,64,0.199975606707287,0.399955268548284,1,NaN,22,420,16,7.14345080624844,0,0,0,1.63768210000126,-20,40,62,50,37,41,44,46,39,40,100,,,,40,0.0738095238095238,17.1541091799317
-20,3,251,120,8,1,120,1.72906939999666,19,0.199978409429605,0.399952969128208,1,NaN,22,420,0,-4.93064625789754,0,0,0,1.72906939999666,-20,100,127,112,123,106,98,127,100,120,,,,,0,0.0738095238095238,17.1541091799317
0,3,252,100,6,1,124,1.61269809998339,58,0.199973872639627,0.399953610399583,1,NaN,22,420,24,15.1434508062484,0,0,0,1.61269809998339,20,100,85,89,101,92,100,100,,,,,,,20,0.0738095238095238,17.1541091799317
-20,3,253,140,11,1,133,1.57926679996308,157,0.199976417140781,0.399954204474025,1,NaN,22,420,-7,-4.67893307621926,0,0,0,1.57926679996308,-40,120,128,108,100,91,91,103,115,108,136,120,140,,20,0.0738095238095238,17.1541091799317
20,3,254,60,5,1,62,2.55424079997465,28,0.199979138514027,0.39995575355133,1,NaN,22,420,2,3.89252030217245,0,0,0,2.55424079997465,80,80,77,73,75,80,60,,,,,,,,60,0.0738095238095238,17.1541091799317
20,3,255,0,11,1,13,1.60327329998836,134,0.199980184245347,0.399953143380117,1,NaN,22,420,13,16.9462244480307,0,0,0,1.60327329998836,60,20,10,7,170,7,16,35,48,55,44,20,0,,40,0.0738095238095238,17.1541091799317
40,3,256,60,11,1,57,1.78759880003054,125,0.199978085097179,0.399952751272146,1,NaN,22,420,-3,-1.10747969782755,0,0,0,1.78759880003054,-60,100,52,59,77,72,70,45,85,79,86,100,60,,80,0.0738095238095238,17.1541091799317
-60,3,257,0,9,1,176,2.01248720003059,98,0.199977567083099,0.399952454692943,1,NaN,22,420,-4,-0.0537755519693329,0,0,0,2.01248720003059,60,120,129,135,132,129,115,138,112,120,0,,,,60,0.0738095238095238,17.1541091799317
0,3,258,160,5,1,174,1.97920080000767,123,0.199974843021482,0.399953737738542,1,NaN,22,420,14,NaN,0,1,0,NaN,20,160,175,169,165,160,160,,,,,,,,20,0.0738095238095238,17.1541091799317
-60,3,259,0,7,1,177,2.53750949999085,107,0.199977515622907,0.399953372510416,1,NaN,22,420,-3,0.946224448030667,0,0,0,2.53750949999085,-20,120,112,110,136,161,143,120,0,,,,,,40,0.0738095238095238,17.1541091799317
0,3,260,20,11,1,24,2.00405779998982,24,0.199977902044669,0.399953973760024,1,NaN,22,420,4,-2.99732426337664,0,0,0,2.00405779998982,-20,20,106,87,87,101,105,96,72,45,22,20,20,,20,0.0738095238095238,17.1541091799317
-40,3,261,120,6,1,119,2.26256459997967,175,0.199975276734525,0.399957701243693,1,NaN,22,420,-1,-5.93064625789754,0,0,0,2.26256459997967,80,80,16,4,174,120,80,120,,,,,,,60,0.0738095238095238,17.1541091799317
-40,3,262,140,11,1,143,1.4707237999537,97,0.199976598642851,0.399956227782902,1,NaN,22,420,3,5.32106692378074,0,0,0,1.4707237999537,-20,100,103,118,94,92,82,130,117,113,106,100,140,,20,0.0738095238095238,17.1541091799317
-40,3,263,0,7,1,177,1.43755050003529,107,0.199977403523267,0.399953226409187,1,NaN,22,420,-3,0.946224448030667,0,0,0,1.43755050003529,-40,140,111,92,111,109,128,140,0,,,,,,0,0.0738095238095238,17.1541091799317
20,3,264,120,4,1,128,1.45421920000808,164,0.199975876428653,0.399953969361377,1,NaN,22,420,8,3.06935374210246,0,0,0,1.45421920000808,60,140,122,125,140,120,,,,,,,,,40,0.0738095238095238,17.1541091799317
0,3,265,20,10,1,22,2.10416190000251,85,0.199977078678785,0.399952777533326,1,NaN,22,420,2,-4.99732426337664,0,0,0,2.10416190000251,-80,20,20,44,60,35,56,40,41,22,20,20,,,80,0.0738095238095238,17.1541091799317
60,3,266,60,9,1,65,1.97086190001573,147,0.199977035039208,0.399952872294105,1,NaN,22,420,5,6.89252030217245,0,0,0,1.97086190001573,-40,120,139,119,129,119,112,99,107,120,60,,,,80,0.0738095238095238,17.1541091799317
60,3,267,20,11,1,23,2.0541791000287,55,0.199978971361733,0.399951244244056,1,NaN,22,420,3,-3.99732426337664,0,0,0,2.0541791000287,40,80,142,162,18,20,11,28,52,75,82,80,20,,20,0.0738095238095238,17.1541091799317
-20,3,268,140,8,1,153,1.54598479997367,130,0.199976610594604,0.399953993190138,1,NaN,22,420,13,15.3210669237807,0,0,0,1.54598479997367,60,120,2,179,153,134,123,129,120,140,,,,,80,0.0738095238095238,17.1541091799317
-20,3,269,160,10,1,156,1.3791628999752,162,0.199974621325964,0.399956766224932,1,NaN,22,420,-4,8.48605998137862,0,0,0,1.3791628999752,-20,140,91,102,104,95,118,157,146,142,140,160,,,0,0.0738095238095238,17.1541091799317
-20,3,270,160,5,1,148,1.63789869996253,31,0.199977185658645,0.399953101144638,1,NaN,22,420,-12,0.486059981378618,0,0,0,1.63789869996253,0,140,133,126,128,140,160,,,,,,,,20,0.0738095238095238,17.1541091799317
-60,3,271,100,4,1,96,1.27099300001282,70,0.199978530203225,0.399953349507996,1,NaN,22,420,-4,-12.8565491937516,0,0,0,1.27099300001282,60,40,23,45,40,100,,,,,,,,,60,0.0738095238095238,17.1541091799317
40,3,272,20,6,1,25,1.6791891999892,94,0.199974682094762,0.399956673907582,1,NaN,22,420,5,-1.99732426337664,0,0,0,1.6791891999892,80,60,91,99,93,77,60,20,,,,,,,40,0.0738095238095238,17.1541091799317
0,3,273,0,5,1,168,2.31254350004019,42,0.199979036231525,0.399952089448925,1,NaN,22,420,-12,-8.05377555196933,0,0,0,2.31254350004019,20,0,26,15,13,0,0,,,,,,,,20,0.0738095238095238,17.1541091799317
-40,3,274,80,6,1,69,1.12107749999268,112,0.199975317276161,0.39995529561808,1,NaN,22,420,-11,-8.11247677167816,0,0,0,1.12107749999268,-80,40,35,43,45,12,40,80,,,,,,,40,0.0738095238095238,17.1541091799317
0,3,275,80,11,1,73,2.7373902000254,150,0.199976749744647,0.39995504819407,1,NaN,22,420,-7,-4.11247677167816,0,0,0,2.7373902000254,0,80,150,133,129,119,109,112,85,74,67,80,80,,0,0.0738095238095238,17.1541091799317
40,3,276,60,4,1,80,1.13775999995414,67,0.199978841992561,0.399954770284239,1,NaN,22,420,20,21.8925203021724,0,0,0,1.13775999995414,20,100,60,91,100,60,,,,,,,,,20,0.0738095238095238,17.1541091799317
40,3,277,80,6,1,71,1.65449230000377,56,0.199978523276513,0.399953030185619,1,NaN,22,420,-9,-6.11247677167816,0,0,0,1.65449230000377,-20,120,154,129,138,119,120,80,,,,,,,60,0.0738095238095238,17.1541091799317
40,3,278,60,5,1,65,1.76150020002387,178,0.199971678876318,0.39995579769602,1,NaN,22,420,5,6.89252030217245,0,0,0,1.76150020002387,20,100,136,154,142,100,60,,,,,,,,20,0.0738095238095238,17.1541091799317
-60,3,279,40,4,1,132,1.38785940001253,0,0.199977983967983,0.399950650476967,1,NaN,22,420,-88,NaN,0,1,0,NaN,20,160,127,158,160,40,,,,,,,,,80,0.0738095238095238,17.1541091799317
20,3,280,20,9,1,21,1.37089220003691,166,0.19997616414912,0.399952988457193,1,NaN,22,420,1,-5.99732426337664,1,0,0,1.37089220003691,20,40,42,46,44,52,38,38,43,40,20,,,,0,0.0738095238095238,17.1541091799317
40,3,281,140,4,1,144,1.53752559999702,115,0.199978031145292,0.399954314591014,1,NaN,22,420,4,6.32106692378074,0,0,0,1.53752559999702,60,0,3,178,0,140,,,,,,,,,20,0.0738095238095238,17.1541091799317
40,3,282,0,7,1,174,1.89606100000674,119,0.199978823989763,0.399952871716648,1,NaN,22,420,-6,-2.05377555196933,0,0,0,1.89606100000674,-40,40,60,29,25,19,34,40,0,,,,,,80,0.0738095238095238,17.1541091799317
-60,3,283,60,8,1,55,1.63752150000073,167,0.199968422879465,0.399955139386293,1,NaN,22,420,-5,-3.10747969782755,0,0,0,1.63752150000073,-60,0,39,34,45,22,20,25,0,60,,,,,0,0.0738095238095238,17.1541091799317
-60,3,284,120,5,1,117,1.89595909998752,144,0.199973807192873,0.399954134726431,1,NaN,22,420,-3,-7.93064625789754,0,0,0,1.89595909998752,-60,60,112,95,89,60,120,,,,,,,,0,0.0738095238095238,17.1541091799317
60,3,285,0,7,1,172,1.30431550001958,6,0.199977977650373,0.39995261616007,1,NaN,22,420,-8,-4.05377555196933,0,0,0,1.30431550001958,-60,60,69,74,85,82,73,60,0,,,,,,60,0.0738095238095238,17.1541091799317
-40,3,286,100,9,1,104,1.79580419999547,1,0.199977843414268,0.399952077772468,1,NaN,22,420,4,-4.85654919375156,0,0,0,1.79580419999547,80,60,52,92,78,59,58,42,54,60,100,,,,60,0.0738095238095238,17.1541091799317
20,3,287,160,5,1,146,1.85442700004205,42,0.199977961124387,0.399952530208975,1,NaN,22,420,-14,-1.51394001862138,0,0,0,1.85442700004205,-60,0,168,166,165,0,160,,,,,,,,80,0.0738095238095238,17.1541091799317
0,3,288,100,8,1,114,1.5125564999762,43,0.199977967458835,0.399954599044577,1,NaN,22,420,14,5.14345080624844,0,0,0,1.5125564999762,60,100,88,69,72,105,82,84,100,100,,,,,60,0.0738095238095238,17.1541091799317
40,3,289,140,12,1,130,1.37093990005087,160,0.199976489476588,0.399954044929473,1,NaN,22,420,-10,-7.67893307621926,0,0,0,1.37093990005087,-40,0,109,132,139,155,165,164,161,174,177,162,0,140,80,0.0738095238095238,17.1541091799317
0,3,290,80,12,1,72,1.37931699998444,113,0.199976937889005,0.399956599979002,1,NaN,22,420,-8,-5.11247677167816,0,0,0,1.37931699998444,60,80,98,97,87,73,86,92,79,92,90,90,80,80,60,0.0738095238095238,17.1541091799317
-40,3,291,40,8,1,43,2.03753869998036,163,0.199977724056225,0.399954107306257,1,NaN,22,420,3,2.27448475470254,0,0,0,2.03753869998036,40,0,48,39,25,6,175,2,0,40,,,,,80,0.0738095238095238,17.1541091799317
-20,3,292,60,11,1,54,3.27911330002826,165,0.199978033969687,0.39995255023876,1,NaN,22,420,-6,-4.10747969782755,0,0,0,3.27911330002826,-20,40,42,30,176,12,41,15,12,17,34,40,60,,0,0.0738095238095238,17.1541091799317
20,3,293,20,5,1,33,2.49591320002219,171,0.199975801922847,0.399961060727946,1,NaN,22,420,13,6.00267573662336,0,0,0,2.49591320002219,40,40,80,92,61,40,20,,,,,,,,20,0.0738095238095238,17.1541091799317
-40,3,294,60,6,1,56,2.06251200003317,116,0.199978205986554,0.399953705966861,1,NaN,22,420,-4,-2.10747969782755,0,0,0,2.06251200003317,-40,20,26,179,179,177,20,60,,,,,,,0,0.0738095238095238,17.1541091799317
60,3,295,160,4,1,159,1.37111509998795,23,0.199977667929488,0.399951225001132,1,NaN,22,420,-1,11.4860599813786,0,0,0,1.37111509998795,80,40,51,42,40,160,,,,,,,,,20,0.0738095238095238,17.1541091799317
-40,3,296,40,7,1,52,1.81268899998395,69,0.199979078457026,0.399950850646876,1,NaN,22,420,12,11.2744847547025,0,0,0,1.81268899998395,-60,0,155,158,150,7,7,0,40,,,,,,20,0.0738095238095238,17.1541091799317
60,3,297,100,4,1,112,1.15432749997126,105,0.199975833034841,0.399953037704108,1,NaN,22,420,12,3.14345080624844,0,0,0,1.15432749997126,-60,160,160,166,160,100,,,,,,,,,60,0.0738095238095238,17.1541091799317
60,3,298,160,10,1,107,1.72936539998045,89,0.199978929053759,0.399953806982376,1,NaN,22,420,-53,NaN,0,1,0,NaN,-60,40,149,168,152,151,169,25,20,16,40,160,,,60,0.0738095238095238,17.1541091799317
40,3,299,160,8,1,143,1.19604809995508,64,0.199977134907385,0.399954913918918,1,NaN,22,420,-17,-4.51394001862138,1,0,0,1.19604809995508,0,20,61,63,39,28,45,28,20,160,,,,,40,0.0738095238095238,17.1541091799317
60,3,300,20,7,1,22,1.36261640000157,124,0.199976422649343,0.399955581931863,1,NaN,22,420,2,-4.99732426337664,0,0,0,1.36261640000157,-40,80,65,68,72,54,47,80,20,,,,,,80,0.0738095238095238,17.1541091799317
-40,3,301,20,6,1,34,1.50421909999568,23,0.199978615147605,0.399952495868395,1,NaN,22,420,14,7.00267573662336,0,0,0,1.50421909999568,0,160,3,5,166,0,160,20,,,,,,,40,0.0738095238095238,17.1541091799317
-20,3,302,140,11,1,124,3.10277459997451,15,0.199978245575701,0.399955405827231,1,NaN,22,420,-16,-13.6789330762193,0,0,0,3.10277459997451,60,120,123,134,121,132,145,169,154,152,160,120,140,,80,0.0738095238095238,17.1541091799317
40,3,303,20,7,1,12,1.72906330000842,136,0.199977893814711,0.39995398379064,1,NaN,22,420,-8,-14.9973242633766,0,0,0,1.72906330000842,-60,60,140,130,110,121,76,60,20,,,,,,80,0.0738095238095238,17.1541091799317
0,3,304,120,10,1,128,2.47939489997225,169,0.199979401507881,0.399951628863346,1,NaN,22,420,8,3.06935374210246,0,0,0,2.47939489997225,80,120,107,143,119,115,124,132,130,127,120,120,,,80,0.0738095238095238,17.1541091799317
-40,3,305,60,4,1,57,1.49618060002103,40,0.199977137293899,0.399953948086477,1,NaN,22,420,-3,-1.10747969782755,0,0,0,1.49618060002103,60,20,177,7,20,60,,,,,,,,,80,0.0738095238095238,17.1541091799317
60,3,306,0,6,1,176,0.771162599965464,176,0.199979213842501,0.399951165435292,1,NaN,22,420,-4,-0.0537755519693329,0,0,0,0.771162599965464,60,60,73,97,90,86,60,0,,,,,,,0,0.0738095238095238,17.1541091799317
-20,3,307,60,7,1,63,1.37930740002776,75,0.199976093260505,0.399950357145696,1,NaN,22,420,3,4.89252030217245,0,0,0,1.37930740002776,-60,40,38,19,27,40,55,40,60,,,,,,40,0.0738095238095238,17.1541091799317
20,3,308,20,10,1,16,2.2541998999659,97,0.199976986600086,0.399956486962037,1,NaN,22,420,-4,-10.9973242633766,0,0,0,2.2541998999659,40,40,92,74,61,39,35,28,35,30,40,20,,,20,0.0738095238095238,17.1541091799317
40,3,309,80,7,1,94,1.41275780001888,41,0.199977313467701,0.399953536913797,1,NaN,22,420,14,16.8875232283218,0,0,0,1.41275780001888,-60,120,97,78,86,103,100,120,80,,,,,,80,0.0738095238095238,17.1541091799317
40,3,310,100,11,1,107,1.38762059999863,84,0.199976117339578,0.399954436532095,1,NaN,22,420,7,-1.85654919375156,0,0,0,1.38762059999863,-20,140,174,163,124,130,117,103,112,119,129,140,100,,60,0.0738095238095238,17.1541091799317
0,3,311,100,5,1,114,1.42098230001284,33,0.199975447158795,0.399955621489789,1,NaN,22,420,14,5.14345080624844,0,0,0,1.42098230001284,0,100,122,109,95,100,100,,,,,,,,0,0.0738095238095238,17.1541091799317
20,3,312,60,4,1,66,1.19603539997479,104,0.199971249079681,0.39995521887613,1,NaN,22,420,6,7.89252030217245,0,0,0,1.19603539997479,40,80,45,69,80,60,,,,,,,,,20,0.0738095238095238,17.1541091799317
-20,3,313,20,10,1,39,1.40420879999874,167,0.199977392453002,0.399955933977617,1,NaN,22,420,19,12.0026757366234,0,0,0,1.40420879999874,40,0,60,72,46,20,3,178,11,7,0,20,,,60,0.0738095238095238,17.1541091799317
-60,3,314,100,5,1,123,1.02096479997272,50,0.199976228666492,0.39995382266352,1,NaN,22,420,23,14.1434508062484,0,0,0,1.02096479997272,-80,40,38,25,16,40,100,,,,,,,,20,0.0738095238095238,17.1541091799317
-40,3,315,60,9,1,70,1.68747569998959,85,0.199976143782907,0.399954190594144,1,NaN,22,420,10,11.8925203021724,0,0,0,1.68747569998959,40,20,11,13,168,170,8,7,170,20,60,,,,80,0.0738095238095238,17.1541091799317
40,4,316,100,7,0,111,1.86262879997957,1,0.199973536430792,0.3999527032221,1,NaN,22,420,11,NaN,0,0,1,NaN,-40,140,57,14,140,63,112,140,100,,,,,,80,0.0738095238095238,17.1541091799317
-20,4,317,40,12,0,33,1.06256200000644,32,0.199975868109808,0.399952894013647,1,NaN,22,420,-7,-7.72551524529746,0,0,0,1.06256200000644,60,20,140,72,93,146,41,177,96,118,59,135,20,40,80,0.0738095238095238,17.1541091799317
-40,4,318,0,4,0,163,1.46265970001696,43,0.199975558003644,0.399953441970865,1,NaN,22,420,-17,-13.0537755519693,0,0,0,1.46265970001696,40,140,167,38,140,0,,,,,,,,,80,0.0738095238095238,17.1541091799317
60,4,319,40,9,0,44,1.79574899998261,171,0.199976119096391,0.39995371885339,1,NaN,22,420,4,3.27448475470254,0,0,0,1.79574899998261,-40,100,114,174,90,63,127,90,120,100,40,,,,80,0.0738095238095238,17.1541091799317
-20,4,320,120,11,0,136,1.40426069998648,56,0.199977951632305,0.399954914073036,1,NaN,22,420,16,11.0693537421025,0,0,0,1.40426069998648,-80,100,92,10,133,174,40,12,144,178,145,100,120,,60,0.0738095238095238,17.1541091799317
-60,4,321,20,7,0,136,1.67929699999513,40,0.199978852844132,0.39995112154533,1,NaN,22,420,-64,NaN,0,1,0,NaN,-80,140,95,107,36,158,135,140,20,,,,,,20,0.0738095238095238,17.1541091799317
20,4,322,60,5,0,54,1.3709022999974,142,0.19997790157795,0.399953270913102,1,NaN,22,420,-6,-4.10747969782755,1,0,0,1.3709022999974,-40,80,54,72,44,80,60,,,,,,,,60,0.0738095238095238,17.1541091799317
-60,4,323,160,11,0,140,1.76253610005369,102,0.199975831058427,0.399955410118723,1,NaN,22,420,-20,-7.51394001862138,0,0,0,1.76253610005369,80,100,118,140,136,58,75,140,129,153,29,100,160,,40,0.0738095238095238,17.1541091799317
40,4,324,100,12,0,118,2.91236770001706,144,0.199977752534323,0.399951844481014,1,NaN,22,420,18,9.14345080624844,0,0,0,2.91236770001706,60,140,107,69,138,175,102,29,10,116,179,137,140,100,20,0.0738095238095238,17.1541091799317
0,4,325,140,5,0,138,2.45426899997983,16,0.199974773579743,0.399955387925729,1,NaN,22,420,-2,0.321066923780742,0,0,0,2.45426899997983,-40,140,51,129,64,140,140,,,,,,,,40,0.0738095238095238,17.1541091799317
-40,4,326,20,8,0,31,1.9042472000001,173,0.199975567462388,0.399953557287517,1,NaN,22,420,11,4.00267573662336,0,0,0,1.9042472000001,-60,160,169,75,6,74,34,62,160,20,,,,,20,0.0738095238095238,17.1541091799317
20,4,327,80,7,0,117,1.74592880002456,95,0.19997572642751,0.399952532299462,1,NaN,22,420,37,NaN,0,1,0,NaN,-60,100,39,171,41,6,128,100,80,,,,,,80,0.0738095238095238,17.1541091799317
40,4,328,120,9,0,124,2.1625473999884,9,0.19997841657217,0.399953999162082,1,NaN,22,420,4,-0.930646257897538,0,0,0,2.1625473999884,-40,160,91,57,109,151,23,54,136,160,120,,,,80,0.0738095238095238,17.1541091799317
20,4,329,140,7,0,115,2.82904549996601,156,0.199977983562608,0.399952328838741,1,NaN,22,420,-25,-22.6789330762193,0,0,0,2.82904549996601,-20,160,142,24,168,107,176,160,140,,,,,,40,0.0738095238095238,17.1541091799317
-20,4,330,120,8,0,129,1.60426250001183,88,0.19997591811989,0.399954596730822,1,NaN,22,420,9,4.06935374210246,0,0,0,1.60426250001183,20,100,132,81,172,130,171,4,100,120,,,,,40,0.0738095238095238,17.1541091799317
40,4,331,20,8,0,29,1.24603110004682,74,0.199978411787015,0.399953698579338,1,NaN,22,420,9,2.00267573662336,0,0,0,1.24603110004682,-80,60,13,30,173,112,23,161,60,20,,,,,60,0.0738095238095238,17.1541091799317
-40,4,332,80,10,0,74,1.48762179998448,57,0.199976010376122,0.399953649443341,1,NaN,22,420,-6,-3.11247677167816,0,0,0,1.48762179998448,-60,40,45,121,146,74,124,11,23,100,40,80,,,20,0.0738095238095238,17.1541091799317
-60,4,333,20,6,0,16,1.47114470001543,41,0.199976841511671,0.399953467286347,1,NaN,22,420,-4,-10.9973242633766,0,0,0,1.47114470001543,60,140,2,49,14,89,140,20,,,,,,,60,0.0738095238095238,17.1541091799317
60,4,334,60,8,0,42,2.36138249997748,160,0.199976609445002,0.399951714141935,1,NaN,22,420,-18,-16.1074796978276,0,0,0,2.36138249997748,-40,120,74,2,90,51,96,44,120,60,,,,,80,0.0738095238095238,17.1541091799317
40,4,335,40,11,0,37,1.35414630000014,87,0.199977086618839,0.399952782672534,1,NaN,22,420,-3,-3.72551524529746,0,0,0,1.35414630000014,20,80,73,108,152,83,167,120,26,177,25,80,40,,20,0.0738095238095238,17.1541091799317
20,4,336,40,11,0,53,1.38749920000555,41,0.199976692283103,0.399951579588973,1,NaN,22,420,13,12.2744847547025,0,0,0,1.38749920000555,0,60,45,94,15,95,2,89,13,79,114,60,40,,20,0.0738095238095238,17.1541091799317
-60,4,337,160,9,0,151,1.28751130000455,35,0.199979184673996,0.399950901699615,1,NaN,22,420,-9,3.48605998137862,0,0,0,1.28751130000455,60,100,152,13,83,10,91,11,31,100,160,,,,60,0.0738095238095238,17.1541091799317
60,4,338,160,8,0,147,1.38774919998832,170,0.199978133983677,0.399954639382486,1,NaN,22,420,-13,-0.513940018621382,0,0,0,1.38774919998832,0,40,125,116,173,141,52,147,40,160,,,,,60,0.0738095238095238,17.1541091799317
20,4,339,60,4,0,55,1.59606670000358,111,0.199975110852392,0.399953851898317,1,NaN,22,420,-5,-3.10747969782755,0,0,0,1.59606670000358,-80,80,49,8,80,60,,,,,,,,,80,0.0738095238095238,17.1541091799317
-20,4,340,80,5,0,78,1.4793314000126,168,0.199980427173432,0.399951274343766,1,NaN,22,420,-2,0.887523228321839,0,0,0,1.4793314000126,-20,60,134,96,172,60,80,,,,,,,,0,0.0738095238095238,17.1541091799317
-20,4,341,20,8,0,38,1.43767419998767,2,0.19997590611456,0.399954973363492,1,NaN,22,420,18,11.0026757366234,0,0,0,1.43767419998767,60,0,69,118,1,122,80,23,0,20,,,,,80,0.0738095238095238,17.1541091799317
-40,4,342,120,8,0,120,2.04500109999208,177,0.199976628275181,0.399956272427517,1,NaN,22,420,0,-4.93064625789754,0,0,0,2.04500109999208,80,80,113,17,50,171,103,39,80,120,,,,,60,0.0738095238095238,17.1541091799317
40,4,343,40,6,0,49,1.48747660004301,12,0.199973736802349,0.399956375758241,1,NaN,22,420,9,8.27448475470254,0,0,0,1.48747660004301,80,80,102,54,152,13,80,40,,,,,,,40,0.0738095238095238,17.1541091799317
60,4,344,160,9,0,141,1.52102240000386,91,0.199978463940271,0.399949655738763,1,NaN,22,420,-19,-6.51394001862138,0,0,0,1.52102240000386,60,40,125,61,41,59,61,158,103,40,160,,,,0,0.0738095238095238,17.1541091799317
40,4,345,0,8,0,34,1.66252989997156,151,0.199977420757932,0.399952094812761,1,NaN,22,420,34,NaN,0,1,0,NaN,-20,40,67,105,90,4,110,125,40,0,,,,,60,0.0738095238095238,17.1541091799317
60,4,346,100,12,0,111,2.15425099997083,20,0.199976470432982,0.399954858337878,1,NaN,22,420,11,2.14345080624844,0,0,0,2.15425099997083,80,160,45,102,48,15,139,104,168,14,135,68,160,100,20,0.0738095238095238,17.1541091799317
20,4,347,0,8,0,173,1.70421420002822,75,0.199977371979912,0.399953785337857,1,NaN,22,420,-7,-3.05377555196933,0,0,0,1.70421420002822,-80,20,76,140,52,123,0,86,20,0,,,,,80,0.0738095238095238,17.1541091799317
20,4,348,20,6,0,30,1.31277380004758,80,0.199977766664233,0.399954789948727,1,NaN,22,420,10,3.00267573662336,0,0,0,1.31277380004758,-20,40,145,13,114,53,40,20,,,,,,,40,0.0738095238095238,17.1541091799317
-40,4,349,100,5,0,100,1.57939299999271,134,0.199976469075773,0.399955653550569,1,NaN,22,420,0,-8.85654919375156,0,0,0,1.57939299999271,-80,60,92,154,75,60,100,,,,,,,,40,0.0738095238095238,17.1541091799317
0,4,350,120,4,0,127,1.82107250002446,16,0.199978641030611,0.399952827370726,1,NaN,22,420,7,2.06935374210246,0,0,0,1.82107250002446,-20,120,7,49,120,120,,,,,,,,,20,0.0738095238095238,17.1541091799317
-60,4,351,0,10,0,11,1.43757430004189,139,0.199977889464935,0.399954849423375,1,NaN,22,420,11,14.9462244480307,0,0,0,1.43757430004189,-60,120,31,118,41,72,155,52,173,64,120,0,,,0,0.0738095238095238,17.1541091799317
60,4,352,40,7,0,108,1.32926029997179,152,0.199978081126963,0.399953006459067,1,NaN,22,420,68,NaN,0,1,0,NaN,-40,100,173,121,38,9,44,100,40,,,,,,80,0.0738095238095238,17.1541091799317
0,4,353,160,7,0,156,1.62103689997457,67,0.199978825062447,0.399953737746858,1,NaN,22,420,-4,8.48605998137862,1,0,0,1.62103689997457,60,160,79,107,58,30,48,160,160,,,,,,60,0.0738095238095238,17.1541091799317
-40,4,354,100,6,0,110,2.5295093000168,10,0.199975815077778,0.399950883031124,1,NaN,22,420,10,1.14345080624844,0,0,0,2.5295093000168,60,60,109,170,38,152,60,100,,,,,,,80,0.0738095238095238,17.1541091799317
0,4,355,80,10,0,84,1.61254220001865,14,0.199976696260273,0.399955272796797,1,NaN,22,420,4,6.88752322832184,0,0,0,1.61254220001865,20,80,15,140,84,136,43,86,125,24,80,80,,,20,0.0738095238095238,17.1541091799317
40,4,356,160,12,0,143,1.3375279000029,178,0.199975770451905,0.399956058812677,1,NaN,22,420,-17,-4.51394001862138,0,0,0,1.3375279000029,-80,20,171,109,43,112,140,179,29,163,68,159,20,160,60,0.0738095238095238,17.1541091799317
-20,4,357,120,6,0,130,2.36253500002204,20,0.199973789004919,0.399955761007732,1,NaN,22,420,10,5.06935374210246,0,0,0,2.36253500002204,40,100,179,72,31,60,100,120,,,,,,,60,0.0738095238095238,17.1541091799317
-60,4,358,0,12,0,175,2.23743869998725,38,0.199976343389911,0.399953740260874,1,NaN,22,420,-5,-1.05377555196933,0,0,0,2.23743869998725,-60,120,3,32,87,26,7,101,24,166,9,56,120,0,0,0.0738095238095238,17.1541091799317
60,4,359,40,4,0,52,1.54606110003078,16,0.199977551877964,0.399953541040304,1,NaN,22,420,12,11.2744847547025,0,0,0,1.54606110003078,-40,100,120,62,100,40,,,,,,,,,80,0.0738095238095238,17.1541091799317
-60,4,360,100,6,0,128,1.10241200000746,44,0.199977117648814,0.39995242797886,1,NaN,22,420,28,19.1434508062484,0,0,0,1.10241200000746,-60,40,112,73,46,128,40,100,,,,,,,0,0.0738095238095238,17.1541091799317
-60,4,361,0,4,0,5,1.42105430003721,134,0.199977616983233,0.399954376887763,1,NaN,22,420,5,8.94622444803067,0,0,0,1.42105430003721,-80,120,170,30,120,0,,,,,,,,,20,0.0738095238095238,17.1541091799317
-40,4,362,20,5,0,27,1.77935059997253,130,0.199977973580826,0.399954679992516,1,NaN,22,420,7,0.00267573662336268,0,0,0,1.77935059997253,-20,160,149,77,134,160,20,,,,,,,,20,0.0738095238095238,17.1541091799317
-60,4,363,80,7,0,65,1.87093079998158,144,0.199975458530909,0.399955834220496,1,NaN,22,420,-15,-12.1124767716782,0,0,0,1.87093079998158,-60,20,43,138,160,40,154,20,80,,,,,,0,0.0738095238095238,17.1541091799317
-20,4,364,140,10,0,133,2.28750359994592,13,0.199978357367218,0.399955104134278,1,NaN,22,420,-7,-4.67893307621926,0,0,0,2.28750359994592,-60,120,97,38,50,22,125,79,46,9,120,140,,,40,0.0738095238095238,17.1541091799317
60,4,365,140,8,0,135,1.49595650000265,178,0.19997754268843,0.399953710628324,1,NaN,22,420,-5,-2.67893307621926,0,0,0,1.49595650000265,0,20,164,45,79,132,174,100,20,140,,,,,60,0.0738095238095238,17.1541091799317
60,4,366,0,5,0,173,1.97090949997073,85,0.199973914737348,0.399955505249091,1,NaN,22,420,-7,-3.05377555196933,0,0,0,1.97090949997073,-40,60,109,43,102,60,0,,,,,,,,80,0.0738095238095238,17.1541091799317
-20,4,367,20,11,0,31,1.57090269995388,116,0.199979937910526,0.399949777532708,1,NaN,22,420,11,4.00267573662336,0,0,0,1.57090269995388,-20,0,105,128,28,138,115,55,169,3,117,0,20,,0,0.0738095238095238,17.1541091799317
0,4,368,40,11,0,38,2.0041673000087,18,0.199976275653832,0.399955404282082,1,NaN,22,420,-2,-2.72551524529746,0,0,0,2.0041673000087,-20,40,150,88,77,115,177,27,76,23,143,40,40,,20,0.0738095238095238,17.1541091799317
-40,4,369,0,12,0,5,1.57922580000013,165,0.199974463854839,0.399953800292375,1,NaN,22,420,5,8.94622444803067,0,0,0,1.57922580000013,40,140,106,163,139,113,161,40,88,125,146,52,140,0,80,0.0738095238095238,17.1541091799317
-20,4,370,140,5,0,151,2.01262500003213,26,0.199977315100841,0.399959544138983,1,NaN,22,420,11,13.3210669237807,0,0,0,2.01262500003213,40,120,153,103,90,120,140,,,,,,,,60,0.0738095238095238,17.1541091799317
-40,4,371,20,9,0,29,1.72920000000158,156,0.199977149695365,0.399954794750859,1,NaN,22,420,9,2.00267573662336,0,0,0,1.72920000000158,-60,160,81,76,150,63,172,53,86,160,20,,,,20,0.0738095238095238,17.1541091799317
40,4,372,0,11,0,1,1.82064340001671,152,0.199978896379682,0.399952015447938,1,NaN,22,420,1,4.94622444803067,0,0,0,1.82064340001671,20,40,75,78,13,99,53,23,144,119,14,40,0,,20,0.0738095238095238,17.1541091799317
60,4,373,100,12,0,139,1.8208447000361,70,0.199976604713205,0.399955535841097,1,NaN,22,420,39,NaN,0,1,0,NaN,80,160,101,170,78,26,79,95,30,70,25,53,160,100,20,0.0738095238095238,17.1541091799317
0,4,374,100,9,0,98,1.83754310000222,143,0.199976765214362,0.399953699554317,1,NaN,22,420,-2,-10.8565491937516,0,0,0,1.83754310000222,0,100,72,50,40,0,72,150,37,100,100,,,,0,0.0738095238095238,17.1541091799317
-60,4,375,0,4,0,156,1.2960030999966,21,0.199976764153689,0.399953996718978,1,NaN,22,420,-24,-20.0537755519693,0,0,0,1.2960030999966,-80,120,153,28,120,0,,,,,,,,,20,0.0738095238095238,17.1541091799317
60,4,376,140,10,0,137,2.13742750004167,23,0.199979676789371,0.399952951498562,1,NaN,22,420,-3,-0.678933076219258,0,0,0,2.13742750004167,40,20,84,136,177,80,107,35,102,156,20,140,,,20,0.0738095238095238,17.1541091799317
40,4,377,140,11,0,139,1.2876619999879,144,0.199979549231516,0.399956680612046,1,NaN,22,420,-1,1.32106692378074,0,0,0,1.2876619999879,0,0,101,175,88,151,79,24,82,35,164,0,140,,40,0.0738095238095238,17.1541091799317
-40,4,378,0,4,0,174,1.58771659998456,24,0.199976808027714,0.399953153755632,1,NaN,22,420,-6,-2.05377555196933,0,0,0,1.58771659998456,-40,140,52,35,140,0,,,,,,,,,0,0.0738095238095238,17.1541091799317
20,4,379,140,5,0,137,1.82079900003737,13,0.19997671097517,0.399954646034166,1,NaN,22,420,-3,-0.678933076219258,0,0,0,1.82079900003737,40,160,150,79,21,160,140,,,,,,,,20,0.0738095238095238,17.1541091799317
20,4,380,0,5,0,18,1.62952219997533,62,0.199976140772924,0.399953033600468,1,NaN,22,420,18,21.9462244480307,0,0,0,1.62952219997533,-40,20,71,6,79,20,0,,,,,,,,60,0.0738095238095238,17.1541091799317
60,4,381,100,8,0,121,1.27118689997587,61,0.199980762772611,0.399951152590802,1,NaN,22,420,21,12.1434508062484,0,0,0,1.27118689997587,80,160,140,48,154,81,7,77,160,100,,,,,20,0.0738095238095238,17.1541091799317
40,4,382,80,5,0,79,1.69611880002776,12,0.199975649046246,0.399956691660918,1,NaN,22,420,-1,1.88752322832184,0,0,0,1.69611880002776,20,120,65,143,50,120,80,,,,,,,,20,0.0738095238095238,17.1541091799317
0,4,383,160,7,0,148,1.0783193000243,58,0.199977125057818,0.399953816443615,1,NaN,22,420,-12,0.486059981378618,0,0,0,1.0783193000243,-80,160,122,164,44,24,142,160,160,,,,,,80,0.0738095238095238,17.1541091799317
20,4,384,140,8,0,145,1.20419419999234,97,0.199975529263611,0.39995448585978,1,NaN,22,420,5,7.32106692378074,0,0,0,1.20419419999234,20,160,44,65,87,129,2,49,160,140,,,,,0,0.0738095238095238,17.1541091799317
-60,4,385,140,12,0,135,1.03753479995066,71,0.199976078123048,0.399954297822357,1,NaN,22,420,-5,-2.67893307621926,0,0,0,1.03753479995066,0,80,101,177,162,165,48,79,114,89,146,76,80,140,60,0.0738095238095238,17.1541091799317
-20,4,386,100,9,0,93,1.69597860000795,82,0.199977049099592,0.399954413820524,1,NaN,22,420,-7,-15.8565491937516,0,0,0,1.69597860000795,40,80,126,20,142,27,106,16,175,80,100,,,,60,0.0738095238095238,17.1541091799317
20,4,387,20,6,0,21,1.07963110000128,73,0.199974311622403,0.399955654119064,1,NaN,22,420,1,-5.99732426337664,0,0,0,1.07963110000128,80,40,91,58,111,89,40,20,,,,,,,60,0.0738095238095238,17.1541091799317
0,4,388,120,4,0,138,1.9627147000283,55,0.199977990560001,0.39995363347407,1,NaN,22,420,18,13.0693537421025,0,0,0,1.9627147000283,80,120,6,149,120,120,,,,,,,,,80,0.0738095238095238,17.1541091799317
-20,4,389,120,5,0,131,2.22939500003122,179,0.199978606437799,0.399951668991707,1,NaN,22,420,11,6.06935374210246,0,0,0,2.22939500003122,0,100,82,142,171,100,120,,,,,,,,20,0.0738095238095238,17.1541091799317
0,4,390,80,7,0,73,2.20435150002595,25,0.199975859032877,0.399954496758125,1,NaN,22,420,-7,-4.11247677167816,0,0,0,2.20435150002595,40,80,122,31,106,77,146,80,80,,,,,,40,0.0738095238095238,17.1541091799317
-60,4,391,20,10,0,39,1.65424989996245,178,0.199977074132767,0.399953529430786,1,NaN,22,420,19,12.0026757366234,0,0,0,1.65424989996245,60,140,167,83,124,43,152,169,55,44,140,20,,,60,0.0738095238095238,17.1541091799317
-60,4,392,120,5,0,144,1.60447359998943,18,0.199979953235015,0.399950577353593,1,NaN,22,420,24,19.0693537421025,0,0,0,1.60447359998943,80,60,170,69,120,60,120,,,,,,,,40,0.0738095238095238,17.1541091799317
-20,4,393,20,7,0,36,1.16986159997759,151,0.199973988147186,0.399953516981831,1,NaN,22,420,16,9.00267573662336,0,0,0,1.16986159997759,-80,0,64,24,141,80,110,0,20,,,,,,60,0.0738095238095238,17.1541091799317
-40,4,394,20,11,0,31,1.2376465999987,75,0.199977387134409,0.399953740495469,1,NaN,22,420,11,4.00267573662336,0,0,0,1.2376465999987,0,160,88,61,3,104,147,91,146,87,56,160,20,,40,0.0738095238095238,17.1541091799317
40,4,395,0,11,0,14,1.47926029999508,125,0.199976742558647,0.399952770983377,1,NaN,22,420,14,17.9462244480307,0,0,0,1.47926029999508,20,40,17,159,131,96,123,139,98,41,9,40,0,,20,0.0738095238095238,17.1541091799317
-40,4,396,100,12,0,114,1.38747230003355,59,0.19997673065518,0.399955792284648,1,NaN,22,420,14,5.14345080624844,0,0,0,1.38747230003355,80,60,97,169,41,14,67,157,176,113,18,148,60,100,60,0.0738095238095238,17.1541091799317
-20,4,397,20,12,0,30,1.70416319998913,48,0.199976456303072,0.399953184581439,1,NaN,22,420,10,3.00267573662336,0,0,0,1.70416319998913,80,0,17,10,133,21,57,118,117,55,174,79,0,20,80,0.0738095238095238,17.1541091799317
20,4,398,140,11,0,157,1.12082379998174,114,0.199977411872665,0.399952694503802,1,NaN,22,420,17,19.3210669237807,0,0,0,1.12082379998174,60,160,36,136,106,69,128,44,115,79,111,160,140,,40,0.0738095238095238,17.1541091799317
0,4,399,20,4,0,31,2.42934369994327,76,0.199975982061005,0.399950549573987,1,NaN,22,420,11,4.00267573662336,0,0,0,2.42934369994327,-60,20,32,125,20,20,,,,,,,,,60,0.0738095238095238,17.1541091799317
60,4,400,140,5,0,137,1.29600889998255,166,0.199976989091374,0.399955969420262,1,NaN,22,420,-3,-0.678933076219258,0,0,0,1.29600889998255,60,20,132,176,82,20,140,,,,,,,,0,0.0738095238095238,17.1541091799317
60,4,401,60,5,0,157,2.09610750002321,78,0.199978339963127,0.399951293598861,1,NaN,22,420,-83,NaN,0,1,0,NaN,80,120,73,14,35,120,60,,,,,,,,20,0.0738095238095238,17.1541091799317
20,4,402,60,7,0,52,1.51259820000269,101,0.19997713124446,0.399952522395844,1,NaN,22,420,-8,-6.10747969782755,1,0,0,1.51259820000269,0,80,41,106,67,158,166,80,60,,,,,,20,0.0738095238095238,17.1541091799317
-40,4,403,120,12,0,118,2.18738800002029,50,0.199977034605884,0.399957933477708,1,NaN,22,420,-2,-6.93064625789754,0,0,0,2.18738800002029,-60,80,159,18,116,139,40,106,156,90,120,126,80,120,20,0.0738095238095238,17.1541091799317
-40,4,404,120,8,0,109,2.1709974000114,166,0.199978718170314,0.399952383027994,1,NaN,22,420,-11,-15.9306462578975,0,0,0,2.1709974000114,0,80,12,84,60,143,142,42,80,120,,,,,40,0.0738095238095238,17.1541091799317
40,4,405,120,8,0,121,1.59610060002888,150,0.199977943171689,0.399953345273389,1,NaN,22,420,1,-3.93064625789754,0,0,0,1.59610060002888,0,160,148,146,119,91,132,30,160,120,,,,,40,0.0738095238095238,17.1541091799317
-40,4,406,20,8,0,17,1.52099520002957,25,0.199977037278586,0.399953871914477,1,NaN,22,420,-3,-9.99732426337664,0,0,0,1.52099520002957,-80,160,104,55,171,147,173,113,160,20,,,,,40,0.0738095238095238,17.1541091799317
-60,4,407,60,5,0,57,3.4124332999927,127,0.199977786047384,0.399953315441962,1,NaN,22,420,-3,-1.10747969782755,0,0,0,3.4124332999927,-40,0,41,102,40,0,60,,,,,,,,20,0.0738095238095238,17.1541091799317
0,4,408,100,8,0,116,1.92048249999061,32,0.199978885575547,0.399951155712188,1,NaN,22,420,16,7.14345080624844,0,0,0,1.92048249999061,-40,100,123,71,27,169,45,14,100,100,,,,,40,0.0738095238095238,17.1541091799317
-60,4,409,100,12,0,114,2.17799930000911,94,0.199976647180544,0.399954551559252,1,NaN,22,420,14,5.14345080624844,0,0,0,2.17799930000911,0,40,69,98,157,12,86,6,107,174,98,156,40,100,60,0.0738095238095238,17.1541091799317
0,4,410,80,4,0,127,1.02106499997899,74,0.199978761345847,0.399954795735539,1,NaN,22,420,47,NaN,0,1,0,NaN,20,80,160,13,80,80,,,,,,,,,20,0.0738095238095238,17.1541091799317
0,4,411,40,4,0,49,1.18777740001678,124,0.199976149975555,0.399956097666291,1,NaN,22,420,9,8.27448475470254,1,0,0,1.18777740001678,40,40,97,56,40,40,,,,,,,,,40,0.0738095238095238,17.1541091799317
-20,4,412,20,7,0,22,1.22106090001762,43,0.199975792451629,0.399955661194066,1,NaN,22,420,2,-4.99732426337664,0,0,0,1.22106090001762,20,0,162,73,150,119,52,0,20,,,,,,40,0.0738095238095238,17.1541091799317
40,4,413,20,12,0,24,1.84584629995516,47,0.199978172813038,0.399952889609267,1,NaN,22,420,4,-2.99732426337664,0,0,0,1.84584629995516,0,60,92,32,135,167,52,111,29,172,20,115,60,20,40,0.0738095238095238,17.1541091799317
40,4,414,160,11,0,143,2.02917150000576,153,0.199976688362023,0.399953682991591,1,NaN,22,420,-17,-4.51394001862138,0,0,0,2.02917150000576,40,20,136,56,64,98,76,69,133,4,101,20,160,,0,0.0738095238095238,17.1541091799317
-20,4,415,100,4,0,146,1.40444830001798,38,0.199972567002987,0.399954910826636,1,NaN,22,420,46,NaN,0,1,0,NaN,60,80,64,38,80,100,,,,,,,,,80,0.0738095238095238,17.1541091799317
20,4,416,20,11,0,37,1.52919359999942,1,0.199977773590945,0.399953358309259,1,NaN,22,420,17,10.0026757366234,1,0,0,1.52919359999942,80,40,92,27,92,158,56,111,14,83,4,40,20,,60,0.0738095238095238,17.1541091799317
20,4,417,100,5,0,122,1.52938490000088,20,0.199978821142577,0.399953253590502,1,NaN,22,420,22,13.1434508062484,0,0,0,1.52938490000088,-80,120,103,77,35,120,100,,,,,,,,80,0.0738095238095238,17.1541091799317
0,4,418,100,12,0,106,1.8624232999864,121,0.199975158340142,0.399953376880148,1,NaN,22,420,6,-2.85654919375156,0,0,0,1.8624232999864,0,100,91,14,164,149,122,70,92,67,95,114,100,100,0,0.0738095238095238,17.1541091799317
0,4,419,140,7,0,124,1.57954569999129,172,0.199976120742836,0.399953628856955,1,NaN,22,420,-16,-13.6789330762193,0,0,0,1.57954569999129,-40,140,110,176,158,151,63,140,140,,,,,,40,0.0738095238095238,17.1541091799317
60,4,420,140,8,0,146,1.25437779998174,91,0.199977735370339,0.39995352900587,1,NaN,22,420,6,8.32106692378074,0,0,0,1.25437779998174,0,20,165,78,126,1,65,46,20,140,,,,,60,0.0738095238095238,17.1541091799317
60,1,1,20,6,0,43,1.38755720003974,82,0.199977879276654,0.399956122972071,2,0,22,280,23,NaN,NaN,1,1,NaN,NaN,80,92,172,156,49,80,20,,,,,,,NaN,0.107142857142857,17.9387416253446
40,1,2,40,12,0,44,1.8457700998988,80,0.199975742172683,0.399952762585599,2,NaN,22,280,4,3.78590068125453,0,0,0,1.8457700998988,-20,80,49,65,129,33,128,156,65,89,49,175,80,40,60,0.107142857142857,17.9387416253446
0,1,3,160,8,0,113,3.07075740001164,91,0.199976367628551,0.399951262079412,2,NaN,22,280,-47,NaN,0,1,0,NaN,60,160,38,92,69,124,144,41,160,160,,,,,60,0.107142857142857,17.9387416253446
-40,1,4,80,9,0,70,1.5628881000448,172,0.199977160340899,0.399953913693834,2,NaN,22,280,-10,-2.87034891844159,1,0,0,1.5628881000448,80,40,2,153,116,56,18,95,63,40,80,,,,60,0.107142857142857,17.9387416253446
0,1,5,160,4,0,165,1.60438639996573,84,0.199979302153224,0.399949407350505,2,NaN,22,280,5,6.03090113903891,0,0,0,1.60438639996573,-80,160,109,4,160,160,,,,,,,,,80,0.107142857142857,17.9387416253446
20,1,6,140,10,0,144,3.22057660005521,39,0.199977603519801,0.399952298915014,2,NaN,22,280,4,1.76804381827457,0,0,0,3.22057660005521,20,160,90,88,153,13,107,44,169,39,160,140,,,0,0.107142857142857,17.9387416253446
0,1,7,60,10,0,52,2.09601909993216,119,0.199979242356494,0.399952017026953,2,NaN,22,280,-8,1.51959729994237,0,0,0,2.09601909993216,80,60,166,176,95,175,121,88,37,137,60,60,,,80,0.107142857142857,17.9387416253446
20,1,8,60,8,0,63,1.67082959995605,117,0.199977116106311,0.399952789462986,2,NaN,22,280,3,12.5195972999424,0,0,0,1.67082959995605,0,80,9,125,7,103,155,53,80,60,,,,,20,0.107142857142857,17.9387416253446
-60,1,9,60,9,0,164,8.85330650000833,82,0.199977104409805,0.39995240391646,2,NaN,22,280,-76,NaN,0,1,0,NaN,0,0,56,27,74,133,102,42,138,0,60,,,,60,0.107142857142857,17.9387416253446
0,1,10,60,8,0,38,3.04577900003642,159,0.199977200172725,0.399951944840723,2,NaN,22,280,-22,-12.4804027000576,1,0,0,3.04577900003642,0,60,139,130,80,17,117,145,60,60,,,,,0,0.107142857142857,17.9387416253446
20,1,11,120,7,0,145,2.26254519994836,127,0.199974526301958,0.399953691704598,2,NaN,22,280,25,19.9109010720038,0,0,0,2.26254519994836,-60,140,172,105,88,165,24,140,120,,,,,,80,0.107142857142857,17.9387416253446
-20,1,12,140,7,0,129,1.19598079996649,125,0.199976851980734,0.399954150414227,2,NaN,22,280,-11,-13.2319561817254,0,0,0,1.19598079996649,-20,120,34,138,23,121,46,120,140,,,,,,0,0.107142857142857,17.9387416253446
0,1,13,40,11,0,44,1.48754340002779,102,0.199977663260969,0.399951175521975,2,NaN,22,280,4,3.78590068125453,0,0,0,1.48754340002779,-80,40,152,171,26,141,39,88,61,25,53,40,40,,80,0.107142857142857,17.9387416253446
-20,1,14,60,11,0,56,1.920829199953,96,0.199978588233617,0.39995274011215,2,NaN,22,280,-4,5.51959729994237,0,0,0,1.920829199953,-20,40,140,163,94,73,23,106,161,71,21,40,60,,0,0.107142857142857,17.9387416253446
0,1,15,120,10,0,124,1.5209483000217,55,0.199977203423623,0.399954718234949,2,NaN,22,280,4,-1.08909892799615,0,0,0,1.5209483000217,-60,120,142,113,143,175,92,24,120,43,120,120,,,60,0.107142857142857,17.9387416253446
60,1,16,160,11,0,158,2.4040864999406,171,0.199977206478996,0.399952340013856,2,NaN,22,280,-2,-0.969098860961092,0,0,0,2.4040864999406,-40,40,35,108,57,25,109,11,101,3,2,40,160,,80,0.107142857142857,17.9387416253446
-20,1,17,20,5,0,15,4.50378439994529,66,0.199975929921493,0.399953065696172,2,NaN,22,280,-5,-2.46119192829433,0,0,0,4.50378439994529,-40,0,97,151,125,0,20,,,,,,,,20,0.107142857142857,17.9387416253446
-40,1,18,140,12,0,155,2.6539511999581,10,0.19997980769646,0.399949827095649,2,NaN,22,280,15,12.7680438182746,0,0,0,2.6539511999581,60,100,154,135,78,90,135,32,82,122,87,39,100,140,80,0.107142857142857,17.9387416253446
-20,1,19,20,5,0,164,1.91260519996285,26,0.199978062324226,0.399949920852669,2,NaN,22,280,-36,NaN,0,1,0,NaN,-60,0,152,82,20,0,20,,,,,,,,40,0.107142857142857,17.9387416253446
-60,1,20,120,4,0,135,1.54601910000201,27,0.199980093922932,0.399953662796179,2,NaN,22,280,15,9.91090107200385,0,0,0,1.54601910000201,80,60,128,34,60,120,,,,,,,,,40,0.107142857142857,17.9387416253446
0,1,21,40,4,0,42,1.99076830002014,105,0.199978859483963,0.399954156717286,2,NaN,22,280,2,1.78590068125453,0,0,0,1.99076830002014,80,40,153,94,40,40,,,,,,,,,80,0.107142857142857,17.9387416253446
-60,1,22,60,8,0,51,2.18771329999436,41,0.199975877418183,0.399953211133834,2,NaN,22,280,-9,0.51959729994237,0,0,0,2.18771329999436,-20,0,19,48,166,60,10,141,0,60,,,,,40,0.107142857142857,17.9387416253446
40,1,23,20,8,0,21,1.21253989997786,40,0.199982651174651,0.399944190736278,2,NaN,22,280,1,3.53880807170567,0,0,0,1.21253989997786,40,60,37,90,151,68,43,133,60,20,,,,,0,0.107142857142857,17.9387416253446
-40,1,24,120,4,0,98,2.62916560005397,60,0.199976619944209,0.399953898944659,2,NaN,22,280,-22,NaN,0,1,0,NaN,80,80,162,48,80,120,,,,,,,,,60,0.107142857142857,17.9387416253446
0,1,25,160,12,0,155,1.49579040007666,101,0.199977117377178,0.39995464803845,2,NaN,22,280,-5,-3.96909886096109,0,0,0,1.49579040007666,-40,160,129,16,151,100,69,93,90,143,18,50,160,160,40,0.107142857142857,17.9387416253446
-60,1,26,40,4,0,75,1.48776589997578,119,0.199977873358876,0.399952542211395,2,NaN,22,280,35,NaN,0,1,0,NaN,-60,160,2,98,160,40,,,,,,,,,0,0.107142857142857,17.9387416253446
-60,1,27,120,6,0,126,1.67083940003067,112,0.199977213866077,0.399950691712244,2,NaN,22,280,6,0.910901072003848,0,0,0,1.67083940003067,-80,60,120,32,20,106,60,120,,,,,,,20,0.107142857142857,17.9387416253446
20,1,28,120,8,0,27,0.829453599988483,55,0.19997992971912,0.399953926695161,2,NaN,22,280,87,NaN,0,1,0,NaN,0,140,71,161,36,0,69,141,140,120,,,,,20,0.107142857142857,17.9387416253446
0,1,29,60,4,0,40,2.20423769997433,2,0.199977030511945,0.399951531289844,2,NaN,22,280,-20,-10.4804027000576,1,0,0,2.20423769997433,60,60,12,108,60,60,,,,,,,,,60,0.107142857142857,17.9387416253446
40,1,30,40,7,0,64,2.1455619999906,41,0.199974288814701,0.399956215339314,2,NaN,22,280,24,23.7859006812545,0,0,0,2.1455619999906,20,80,78,129,83,97,147,80,40,,,,,,20,0.107142857142857,17.9387416253446
-20,1,31,80,7,0,54,2.11266769992653,12,0.199979411504631,0.399952251380975,2,NaN,22,280,-26,-18.8703489184416,0,0,0,2.11266769992653,-40,60,77,169,30,40,150,60,80,,,,,,20,0.107142857142857,17.9387416253446
-60,1,32,140,11,0,136,1.76264740002807,149,0.19997517242816,0.399953685912558,2,NaN,22,280,-4,-6.23195618172543,0,0,0,1.76264740002807,-60,80,110,124,97,50,20,146,68,118,21,80,140,,0,0.107142857142857,17.9387416253446
-60,1,33,60,9,0,36,2.19583179999609,176,0.199978297162387,0.399954996330457,2,NaN,22,280,-24,-14.4804027000576,0,0,0,2.19583179999609,80,0,68,39,12,32,148,104,136,0,60,,,,40,0.107142857142857,17.9387416253446
40,1,34,20,8,0,16,2.46260470000561,95,0.199976068572141,0.399953166721389,2,NaN,22,280,-4,-1.46119192829433,0,0,0,2.46260470000561,40,60,41,95,171,35,68,142,60,20,,,,,0,0.107142857142857,17.9387416253446
60,1,35,100,7,0,109,2.29656819999218,14,0.199975748280329,0.399952311634219,2,NaN,22,280,9,7.76275299684701,0,0,0,2.29656819999218,-80,160,118,51,123,25,139,160,100,,,,,,40,0.107142857142857,17.9387416253446
-40,1,36,120,4,0,107,2.06231060007121,58,0.199977711745305,0.399953094951343,2,NaN,22,280,-13,-18.0890989279962,0,0,0,2.06231060007121,-20,80,68,117,80,120,,,,,,,,,20,0.107142857142857,17.9387416253446
-40,1,37,40,8,0,14,1.87076010007877,131,0.199977341064368,0.399951932136901,2,NaN,22,280,-26,NaN,0,1,0,NaN,80,0,98,162,21,57,172,60,0,40,,,,,60,0.107142857142857,17.9387416253446
60,1,38,20,12,0,44,2.36245649994817,144,0.199976086500101,0.39995447906161,2,NaN,22,280,24,NaN,0,1,0,NaN,20,80,79,110,135,152,66,174,126,173,53,21,80,20,40,0.107142857142857,17.9387416253446
40,1,39,40,12,0,46,1.47086020000279,128,0.199976640811656,0.399958544934634,2,NaN,22,280,6,5.78590068125453,0,0,0,1.47086020000279,-20,80,24,9,114,129,147,72,104,30,54,58,80,40,60,0.107142857142857,17.9387416253446
60,1,40,40,8,0,149,4.08733489993028,59,0.199975853945944,0.399953987842309,2,NaN,22,280,-71,NaN,0,1,0,NaN,0,100,113,60,26,69,142,165,100,40,,,,,60,0.107142857142857,17.9387416253446
-60,1,41,100,7,0,104,3.20407700003125,68,0.199976582845141,0.399955217044667,2,NaN,22,280,4,2.76275299684701,1,0,0,3.20407700003125,-60,40,157,45,119,38,148,40,100,,,,,,0,0.107142857142857,17.9387416253446
20,1,42,0,7,0,12,1.03773699991871,178,0.199976393653612,0.399952482565173,2,NaN,22,280,12,14.6609011646796,0,0,0,1.03773699991871,-80,20,52,120,0,31,175,20,0,,,,,,80,0.107142857142857,17.9387416253446
-60,1,43,120,4,0,121,2.76962129992899,27,0.199976358824642,0.399953160085715,2,NaN,22,280,1,-4.08909892799615,0,0,0,2.76962129992899,60,60,166,139,60,120,,,,,,,,,60,0.107142857142857,17.9387416253446
20,1,44,20,10,0,13,6.48699889995623,97,0.199974390701391,0.399954003177118,2,NaN,22,280,-7,-4.46119192829433,0,0,0,6.48699889995623,-80,40,173,162,77,43,25,148,42,54,40,20,,,80,0.107142857142857,17.9387416253446
60,1,45,60,7,0,60,1.87919049989432,147,0.199975999986886,0.399954421246158,2,NaN,22,280,0,9.51959729994237,0,0,0,1.87919049989432,-40,120,107,15,74,59,22,120,60,,,,,,80,0.107142857142857,17.9387416253446
-40,1,46,20,8,0,19,2.34592709993012,150,0.199977598516853,0.399955886430689,2,NaN,22,280,-1,1.53880807170567,0,0,0,2.34592709993012,40,160,97,44,92,140,176,44,160,20,,,,,80,0.107142857142857,17.9387416253446
-20,1,47,100,7,0,106,6.74528529995587,154,0.1999740063745,0.399955912726,2,NaN,22,280,6,4.76275299684701,0,0,0,6.74528529995587,-80,80,57,124,4,102,6,80,100,,,,,,60,0.107142857142857,17.9387416253446
40,1,48,0,7,0,10,2.42915659991559,174,0.199977614916861,0.399952273682824,2,NaN,22,280,10,12.6609011646796,0,0,0,2.42915659991559,-80,40,34,99,179,20,109,40,0,,,,,,60,0.107142857142857,17.9387416253446
-20,1,49,60,12,0,54,1.47083000000566,60,0.199977389866641,0.399953962992489,2,NaN,22,280,-6,3.51959729994237,0,0,0,1.47083000000566,-60,40,154,14,96,44,122,103,102,13,30,112,40,60,40,0.107142857142857,17.9387416253446
40,1,50,140,12,0,140,3.62901460006833,67,0.199976890765053,0.399953513299503,2,NaN,22,280,0,-2.23195618172543,0,0,0,3.62901460006833,-80,0,151,174,52,130,68,144,25,141,36,72,0,140,60,0.107142857142857,17.9387416253446
-40,1,51,80,9,0,52,2.23751340003219,8,0.199975927360356,0.399956556851976,2,NaN,22,280,-28,-20.8703489184416,0,0,0,2.23751340003219,60,40,46,28,69,98,126,16,118,40,80,,,,80,0.107142857142857,17.9387416253446
60,1,52,140,12,0,156,1.0787735999329,126,0.19997706321495,0.399952404831614,2,NaN,22,280,16,13.7680438182746,0,0,0,1.0787735999329,-60,20,134,32,143,53,11,137,139,165,38,134,20,140,60,0.107142857142857,17.9387416253446
20,1,53,60,5,0,49,1.20440230006352,26,0.199976532440633,0.39995512755122,2,NaN,22,280,-11,-1.48040270005763,0,0,0,1.20440230006352,80,80,147,21,143,80,60,,,,,,,,60,0.107142857142857,17.9387416253446
40,1,54,20,8,0,23,1.6791685000062,134,0.199976837611757,0.399953158499557,2,NaN,22,280,3,5.53880807170567,0,0,0,1.6791685000062,40,60,143,37,70,160,148,107,60,20,,,,,0,0.107142857142857,17.9387416253446
20,1,55,100,9,0,120,3.5790034000529,12,0.199979560967121,0.399951730699589,2,NaN,22,280,20,18.762752996847,0,0,0,3.5790034000529,-80,120,37,7,139,157,102,14,81,120,100,,,,80,0.107142857142857,17.9387416253446
-20,1,56,40,8,0,23,1.68758400005754,40,0.199976950738346,0.39995362413174,2,NaN,22,280,-17,-17.2140993187455,0,0,0,1.68758400005754,60,20,144,78,120,95,121,12,20,40,,,,,80,0.107142857142857,17.9387416253446
-40,1,57,20,10,0,17,1.40422830008902,11,0.199978406541049,0.399953198235016,2,NaN,22,280,-3,-0.461191928294334,0,0,0,1.40422830008902,20,160,126,37,168,157,97,38,145,84,160,20,,,60,0.107142857142857,17.9387416253446
40,1,58,160,6,0,162,3.64557419996709,41,0.199974130373448,0.399955936338908,2,NaN,22,280,2,3.03090113903891,0,0,0,3.64557419996709,40,20,48,3,94,140,20,160,,,,,,,0,0.107142857142857,17.9387416253446
-40,1,59,0,8,0,154,1.83753279992379,3,0.199973933209549,0.399954175096354,2,NaN,22,280,-26,-23.3390988353204,0,0,0,1.83753279992379,-20,140,99,168,97,55,69,91,140,0,,,,,20,0.107142857142857,17.9387416253446
20,1,60,80,11,0,71,2.42072219995316,42,0.199977113706568,0.399954044260085,2,NaN,22,280,-9,-1.87034891844159,0,0,0,2.42072219995316,-80,100,153,37,57,30,106,34,50,10,68,100,80,,80,0.107142857142857,17.9387416253446
