obs;age;delta;resp;error;errorc;rt;rtc;theta;block;stimtype;outliers;stimtype_bk;case;ntrials;study;experiment;stimulus;cond
1;28;NaN;149;-10;-6.91496598639456;1.61626111924807;1.61626111924807;159;2;2;0;1;NaN;588;Ceylan et al. (2021);Experiment 1;Orientation;1
1;28;-52;17;-14;-10.9149659863946;1.33298789757328;1.33298789757328;31;2;2;0;2;NaN;588;Ceylan et al. (2021);Experiment 1;Orientation;1
1;28;68;139;-4;-0.914965986394558;1.54960479653619;1.54960479653619;143;2;2;0;2;NaN;588;Ceylan et al. (2021);Experiment 1;Orientation;1
1;28;75;40;-28;-24.9149659863946;1.55792030969087;1.55792030969087;68;2;2;0;2;NaN;588;Ceylan et al. (2021);Experiment 1;Orientation;1
1;28;-31;106;7;10.0850340136054;3.31603508170338;3.31603508170338;99;2;2;0;2;NaN;588;Ceylan et al. (2021);Experiment 1;Orientation;1
1;28;37;55;-7;-3.91496598639456;2.19953458241616;2.19953458241616;62;2;2;0;2;NaN;588;Ceylan et al. (2021);Experiment 1;Orientation;1
1;28;81;147;-14;-10.9149659863946;1.48293851223343;1.48293851223343;161;2;2;0;2;NaN;588;Ceylan et al. (2021);Experiment 1;Orientation;1
1;28;-73;57;3;6.08503401360544;1.39963395682844;1.39963395682844;54;2;2;0;2;NaN;588;Ceylan et al. (2021);Experiment 1;Orientation;1
1;28;66;159;-9;-5.91496598639456;0.866372507942287;0.866372507942287;168;2;2;0;2;NaN;588;Ceylan et al. (2021);Experiment 1;Orientation;1
1;28;-24;167;-25;-21.9149659863946;1.83285326516807;1.83285326516807;12;2;2;0;2;NaN;588;Ceylan et al. (2021);Experiment 1;Orientation;1
1;28;-89;109;8;11.0850340136054;2.04121321305365;2.04121321305365;101;2;2;0;2;NaN;588;Ceylan et al. (2021);Experiment 1;Orientation;1
1;28;89;9;-3;0.0850340136054424;1.88288822129471;1.88288822129471;12;2;2;0;2;NaN;588;Ceylan et al. (2021);Experiment 1;Orientation;1
1;28;46;134;-12;-8.91496598639456;1.22468518355299;1.22468518355299;146;2;2;0;2;NaN;588;Ceylan et al. (2021);Experiment 1;Orientation;1
1;28;-43;10;1;4.08503401360544;2.14120192325117;2.14120192325117;9;2;2;0;2;NaN;588;Ceylan et al. (2021);Experiment 1;Orientation;1
1;28;65;129;5;8.08503401360544;1.78285694793749;1.78285694793749;124;2;2;0;2;NaN;588;Ceylan et al. (2021);Experiment 1;Orientation;1
1;28;44;74;-6;-2.91496598639456;1.54960872079891;1.54960872079891;80;2;2;0;2;NaN;588;Ceylan et al. (2021);Experiment 1;Orientation;1
1;28;36;28;-16;-12.9149659863946;1.8745711988081;1.8745711988081;44;2;2;0;2;NaN;588;Ceylan et al. (2021);Experiment 1;Orientation;1
1;28;-58;113;11;14.0850340136054;1.45795786186818;1.45795786186818;102;2;2;0;2;NaN;588;Ceylan et al. (2021);Experiment 1;Orientation;1
1;28;-82;4;0;3.08503401360544;2.89107815803573;2.89107815803573;4;2;2;0;2;NaN;588;Ceylan et al. (2021);Experiment 1;Orientation;1
1;28;38;115;-31;-27.9149659863946;2.31617303463827;2.31617303463827;146;2;2;0;2;NaN;588;Ceylan et al. (2021);Experiment 1;Orientation;1
1;28;-88;50;-4;-0.914965986394558;2.06622042766048;2.06622042766048;54;2;2;0;2;NaN;588;Ceylan et al. (2021);Experiment 1;Orientation;1
1;28;-68;106;-16;-12.9149659863946;1.55795170379406;1.55795170379406;122;2;2;0;2;NaN;588;Ceylan et al. (2021);Experiment 1;Orientation;1
1;28;80;57;15;18.0850340136054;1.91618046055146;1.91618046055146;42;2;2;0;2;NaN;588;Ceylan et al. (2021);Experiment 1;Orientation;1
1;28;26;166;-30;-26.9149659863946;1.94960642661454;1.94960642661454;16;2;2;0;2;NaN;588;Ceylan et al. (2021);Experiment 1;Orientation;1
1;28;19;162;-15;-11.9149659863946;1.40796758196575;1.40796758196575;177;2;2;0;2;NaN;588;Ceylan et al. (2021);Experiment 1;Orientation;1
1;28;81;109;13;16.0850340136054;1.49969481309017;1.49969481309017;96;2;2;0;2;NaN;588;Ceylan et al. (2021);Experiment 1;Orientation;1
1;28;-62;142;-16;-12.9149659863946;1.20794337228244;1.20794337228244;158;2;2;0;2;NaN;588;Ceylan et al. (2021);Experiment 1;Orientation;1
1;28;-52;47;17;20.0850340136054;2.3578233502094;2.3578233502094;30;2;2;0;2;NaN;588;Ceylan et al. (2021);Experiment 1;Orientation;1
1;28;-20;49;-1;2.08503401360544;3.75763842686547;3.75763842686547;50;2;2;0;2;NaN;588;Ceylan et al. (2021);Experiment 1;Orientation;1
1;28;72;132;-26;-22.9149659863946;1.72458526578112;1.72458526578112;158;2;2;0;2;NaN;588;Ceylan et al. (2021);Experiment 1;Orientation;1
1;28;-55;42;9;12.0850340136054;2.22450376185907;2.22450376185907;33;2;2;0;2;NaN;588;Ceylan et al. (2021);Experiment 1;Orientation;1
1;28;0;133;-80;NaN;3.69934108606685;NaN;33;2;2;1;2;NaN;588;Ceylan et al. (2021);Experiment 1;Orientation;1
1;28;-60;109;16;NaN;1.68294128940397;NaN;93;2;2;1;2;NaN;588;Ceylan et al. (2021);Experiment 1;Orientation;1
1;28;-49;145;3;6.08503401360544;2.24950312793908;2.24950312793908;142;2;2;0;2;NaN;588;Ceylan et al. (2021);Experiment 1;Orientation;1
1;28;28;112;-2;1.08503401360544;1.61626142111481;1.61626142111481;114;2;2;0;2;NaN;588;Ceylan et al. (2021);Experiment 1;Orientation;1
1;28;20;101;7;10.0850340136054;1.39963939042309;1.39963939042309;94;2;2;0;2;NaN;588;Ceylan et al. (2021);Experiment 1;Orientation;1
1;28;78;15;-1;2.08503401360544;1.05798672029414;1.05798672029414;16;2;2;0;2;NaN;588;Ceylan et al. (2021);Experiment 1;Orientation;1
1;28;32;157;-7;-3.91496598639456;1.24962236515921;1.24962236515921;164;2;2;0;2;NaN;588;Ceylan et al. (2021);Experiment 1;Orientation;1
1;28;61;117;14;17.0850340136054;1.72455024928149;1.72455024928149;103;2;2;0;2;NaN;588;Ceylan et al. (2021);Experiment 1;Orientation;1
1;28;-89;14;2;5.08503401360544;1.3163290995567;1.3163290995567;12;2;2;0;2;NaN;588;Ceylan et al. (2021);Experiment 1;Orientation;1
1;28;25;154;-13;-9.91496598639456;1.90785770260391;1.90785770260391;167;2;2;0;2;NaN;588;Ceylan et al. (2021);Experiment 1;Orientation;1
1;28;64;121;18;21.0850340136054;1.02466218133486;1.02466218133486;103;2;2;0;2;NaN;588;Ceylan et al. (2021);Experiment 1;Orientation;1
1;28;84;22;3;6.08503401360544;1.20797748318319;1.20797748318319;19;2;2;0;2;NaN;588;Ceylan et al. (2021);Experiment 1;Orientation;1
1;28;50;114;-35;-31.9149659863946;1.54125577621335;1.54125577621335;149;2;2;0;2;NaN;588;Ceylan et al. (2021);Experiment 1;Orientation;1
1;28;66;46;-37;-33.9149659863946;1.55800483227677;1.55800483227677;83;2;2;0;2;NaN;588;Ceylan et al. (2021);Experiment 1;Orientation;1
1;28;79;177;-7;-3.91496598639456;1.54953929153135;1.54953929153135;4;2;2;0;2;NaN;588;Ceylan et al. (2021);Experiment 1;Orientation;1
1;28;63;111;-10;-6.91496598639456;1.02466610559759;1.02466610559759;121;2;2;0;2;NaN;588;Ceylan et al. (2021);Experiment 1;Orientation;1
1;28;-80;12;-9;-5.91496598639456;1.51624916533956;1.51624916533956;21;2;2;0;2;NaN;588;Ceylan et al. (2021);Experiment 1;Orientation;1
1;28;-55;66;-10;-6.91496598639456;1.16625622901256;1.16625622901256;76;2;2;0;2;NaN;588;Ceylan et al. (2021);Experiment 1;Orientation;1
1;28;-60;120;-16;-12.9149659863946;0.999655268594779;0.999655268594779;136;2;2;0;2;NaN;588;Ceylan et al. (2021);Experiment 1;Orientation;1
1;28;-83;43;4;7.08503401360544;1.62458327346303;1.62458327346303;39;2;2;0;2;NaN;588;Ceylan et al. (2021);Experiment 1;Orientation;1
1;28;8;42;11;14.0850340136054;1.71626130036793;1.71626130036793;31;2;2;0;2;NaN;588;Ceylan et al. (2021);Experiment 1;Orientation;1
1;28;-3;33;-1;2.08503401360544;1.21632348484218;1.21632348484218;34;2;2;0;2;NaN;588;Ceylan et al. (2021);Experiment 1;Orientation;1
1;28;77;118;-19;-15.9149659863946;1.28294720598524;1.28294720598524;137;2;2;0;2;NaN;588;Ceylan et al. (2021);Experiment 1;Orientation;1
1;28;89;59;11;14.0850340136054;1.63288067463509;1.63288067463509;48;2;2;0;2;NaN;588;Ceylan et al. (2021);Experiment 1;Orientation;1
1;28;-65;102;-11;-7.91496598639456;1.54124309782537;1.54124309782537;113;2;2;0;2;NaN;588;Ceylan et al. (2021);Experiment 1;Orientation;1
1;28;12;100;-1;2.08503401360544;1.20796148426507;1.20796148426507;101;2;2;0;2;NaN;588;Ceylan et al. (2021);Experiment 1;Orientation;1
1;28;43;60;2;5.08503401360544;2.38287312797547;2.38287312797547;58;2;2;0;2;NaN;588;Ceylan et al. (2021);Experiment 1;Orientation;1
1;28;-46;119;15;18.0850340136054;1.39128433277256;1.39128433277256;104;2;2;0;2;NaN;588;Ceylan et al. (2021);Experiment 1;Orientation;1
1;28;67;38;1;4.08503401360544;1.74120874543132;1.74120874543132;37;2;2;0;2;NaN;588;Ceylan et al. (2021);Experiment 1;Orientation;1
1;28;-9;47;1;4.08503401360544;1.59959477457232;1.59959477457232;46;2;2;0;2;NaN;588;Ceylan et al. (2021);Experiment 1;Orientation;1
1;28;63;151;-12;-8.91496598639456;0.833011141284715;0.833011141284715;163;2;2;0;2;NaN;588;Ceylan et al. (2021);Experiment 1;Orientation;1
1;28;-17;179;-1;2.08503401360544;1.3246379716511;1.3246379716511;0;2;2;0;2;NaN;588;Ceylan et al. (2021);Experiment 1;Orientation;1
1;28;-61;56;-5;-1.91496598639456;1.06631732676806;1.06631732676806;61;2;2;0;2;NaN;588;Ceylan et al. (2021);Experiment 1;Orientation;1
1;28;32;28;-1;2.08503401360544;1.99120572676748;1.99120572676748;29;2;2;0;2;NaN;588;Ceylan et al. (2021);Experiment 1;Orientation;1
1;28;-42;69;-2;1.08503401360544;1.75792037006386;1.75792037006386;71;2;2;0;2;NaN;588;Ceylan et al. (2021);Experiment 1;Orientation;1
1;28;75;166;-10;-6.91496598639456;1.27463108909797;1.27463108909797;176;2;2;0;2;NaN;588;Ceylan et al. (2021);Experiment 1;Orientation;1
1;28;36;145;5;8.08503401360544;1.66621668451717;1.66621668451717;140;2;2;0;2;NaN;588;Ceylan et al. (2021);Experiment 1;Orientation;1
1;28;-14;143;-11;-7.91496598639456;2.34949847919734;2.34949847919734;154;2;2;0;2;NaN;588;Ceylan et al. (2021);Experiment 1;Orientation;1
1;28;58;106;10;13.0850340136054;1.549600872273;1.549600872273;96;2;2;0;2;NaN;588;Ceylan et al. (2021);Experiment 1;Orientation;1
1;28;-51;151;4;7.08503401360544;0.716410724225625;0.716410724225625;147;2;2;0;2;NaN;588;Ceylan et al. (2021);Experiment 1;Orientation;1
1;28;77;74;4;7.08503401360544;1.17463724717163;1.17463724717163;70;2;2;0;2;NaN;588;Ceylan et al. (2021);Experiment 1;Orientation;1
1;28;5;65;0;3.08503401360544;2.29950427503127;2.29950427503127;65;2;2;0;2;NaN;588;Ceylan et al. (2021);Experiment 1;Orientation;1
1;28;-4;63;-6;-2.91496598639456;1.208010084752;1.208010084752;69;2;2;0;2;NaN;588;Ceylan et al. (2021);Experiment 1;Orientation;1
1;28;-68;125;-12;-8.91496598639456;1.33297008745694;1.33297008745694;137;2;2;0;2;NaN;588;Ceylan et al. (2021);Experiment 1;Orientation;1
1;28;-73;30;0;3.08503401360544;1.39962610830207;1.39962610830207;30;2;2;0;2;NaN;588;Ceylan et al. (2021);Experiment 1;Orientation;1
1;28;-58;88;0;3.08503401360544;0.916367919573077;0.916367919573077;88;2;2;0;2;NaN;588;Ceylan et al. (2021);Experiment 1;Orientation;1
1;28;-6;107;13;16.0850340136054;1.50791131407232;1.50791131407232;94;2;2;0;2;NaN;588;Ceylan et al. (2021);Experiment 1;Orientation;1
1;28;74;14;-6;-2.91496598639456;1.10801080923147;1.10801080923147;20;2;2;0;2;NaN;588;Ceylan et al. (2021);Experiment 1;Orientation;1
1;28;-44;54;-10;-6.91496598639456;1.14128614397123;1.14128614397123;64;2;2;0;2;NaN;588;Ceylan et al. (2021);Experiment 1;Orientation;1
1;28;77;159;-8;-4.91496598639456;0.841421440482009;0.841421440482009;167;2;2;0;2;NaN;588;Ceylan et al. (2021);Experiment 1;Orientation;1
1;28;-61;38;-10;-6.91496598639456;0.80801751066474;0.80801751066474;48;2;2;0;2;NaN;588;Ceylan et al. (2021);Experiment 1;Orientation;1
1;28;14;39;5;8.08503401360544;1.29965369888941;1.29965369888941;34;2;2;0;2;NaN;588;Ceylan et al. (2021);Experiment 1;Orientation;1
1;28;-29;24;-39;NaN;1.21629088327336;NaN;63;2;2;1;2;NaN;588;Ceylan et al. (2021);Experiment 1;Orientation;1
1;28;28;26;-9;NaN;2.34117934364576;NaN;35;2;2;1;2;NaN;588;Ceylan et al. (2021);Experiment 1;Orientation;1
1;28;10;18;-7;-3.91496598639456;1.51627361651617;1.51627361651617;25;2;2;0;2;NaN;588;Ceylan et al. (2021);Experiment 1;Orientation;1
1;28;22;174;-9;-5.91496598639456;1.98286123444041;1.98286123444041;3;2;2;0;2;NaN;588;Ceylan et al. (2021);Experiment 1;Orientation;1
1;28;29;143;-11;-7.91496598639456;1.64961403364714;1.64961403364714;154;2;2;0;2;NaN;588;Ceylan et al. (2021);Experiment 1;Orientation;1
1;28;60;93;-1;2.08503401360544;2.22450979918676;2.22450979918676;94;2;2;0;2;NaN;588;Ceylan et al. (2021);Experiment 1;Orientation;1
1;28;43;49;-2;1.08503401360544;1.14966233226778;1.14966233226778;51;2;2;0;2;NaN;588;Ceylan et al. (2021);Experiment 1;Orientation;1
1;28;78;138;-15;-11.9149659863946;1.01629565276198;1.01629565276198;153;2;2;0;2;NaN;588;Ceylan et al. (2021);Experiment 1;Orientation;1
1;28;39;119;5;8.08503401360544;1.3912284874923;1.3912284874923;114;2;2;0;2;NaN;588;Ceylan et al. (2021);Experiment 1;Orientation;1
1;28;60;66;12;15.0850340136054;2.14933873150949;2.14933873150949;54;2;2;0;2;NaN;588;Ceylan et al. (2021);Experiment 1;Orientation;1
1;28;63;149;-22;-18.9149659863946;1.39965388000928;1.39965388000928;171;2;2;0;2;NaN;588;Ceylan et al. (2021);Experiment 1;Orientation;1
1;28;51;117;-3;0.0850340136054424;1.02469810343382;1.02469810343382;120;2;2;0;2;NaN;588;Ceylan et al. (2021);Experiment 1;Orientation;1
1;28;-2;120;-2;1.08503401360544;1.50786875091308;1.50786875091308;122;2;2;0;2;NaN;588;Ceylan et al. (2021);Experiment 1;Orientation;1
1;28;-25;142;-5;-1.91496598639456;2.27453056759305;2.27453056759305;147;2;2;0;2;NaN;588;Ceylan et al. (2021);Experiment 1;Orientation;1
1;28;26;127;6;9.08503401360544;2.60779769156716;2.60779769156716;121;2;2;0;2;NaN;588;Ceylan et al. (2021);Experiment 1;Orientation;1
1;28;-85;18;-8;-4.91496598639456;1.29967211273879;1.29967211273879;26;2;2;0;2;NaN;588;Ceylan et al. (2021);Experiment 1;Orientation;1
1;28;5;22;1;4.08503401360544;1.66622906103885;1.66622906103885;21;2;2;0;2;NaN;588;Ceylan et al. (2021);Experiment 1;Orientation;1
1;28;-47;53;-15;-11.9149659863946;1.81620201381065;1.81620201381065;68;2;2;0;2;NaN;588;Ceylan et al. (2021);Experiment 1;Orientation;1
1;28;24;41;-3;0.0850340136054424;3.90757153327604;3.90757153327604;44;2;2;0;2;NaN;588;Ceylan et al. (2021);Experiment 1;Orientation;1
1;28;-7;47;-4;-0.914965986394558;2.0245248321321;2.0245248321321;51;2;2;0;2;NaN;588;Ceylan et al. (2021);Experiment 1;Orientation;1
1;28;-78;123;-6;-2.91496598639456;1.57461291674144;1.57461291674144;129;2;2;0;2;NaN;588;Ceylan et al. (2021);Experiment 1;Orientation;1
1;28;-19;126;-22;-18.9149659863946;1.43295185472743;1.43295185472743;148;2;2;0;2;NaN;588;Ceylan et al. (2021);Experiment 1;Orientation;1
1;28;84;63;-1;2.08503401360544;2.63273034517806;2.63273034517806;64;2;2;0;2;NaN;588;Ceylan et al. (2021);Experiment 1;Orientation;1
1;28;-49;109;-4;-0.914965986394558;2.16621276025398;2.16621276025398;113;2;2;0;2;NaN;588;Ceylan et al. (2021);Experiment 1;Orientation;1
1;28;13;102;2;5.08503401360544;1.257960216426;1.257960216426;100;2;2;0;2;NaN;588;Ceylan et al. (2021);Experiment 1;Orientation;1
1;28;-55;143;-12;-8.91496598639456;1.10801594095983;1.10801594095983;155;2;2;0;2;NaN;588;Ceylan et al. (2021);Experiment 1;Orientation;1
1;28;-29;9;5;8.08503401360544;1.39964754081575;1.39964754081575;4;2;2;0;2;NaN;588;Ceylan et al. (2021);Experiment 1;Orientation;1
1;28;52;131;-1;2.08503401360544;2.06625061429804;2.06625061429804;132;2;2;0;2;NaN;588;Ceylan et al. (2021);Experiment 1;Orientation;1
1;28;-37;154;-15;-11.9149659863946;1.33302019727535;1.33302019727535;169;2;2;0;2;NaN;588;Ceylan et al. (2021);Experiment 1;Orientation;1
1;28;-37;10;-16;-12.9149659863946;1.72458768071238;1.72458768071238;26;2;2;0;2;NaN;588;Ceylan et al. (2021);Experiment 1;Orientation;1
1;28;-60;99;13;16.0850340136054;1.59958300178323;1.59958300178323;86;2;2;0;2;NaN;588;Ceylan et al. (2021);Experiment 1;Orientation;1
1;28;-32;123;5;8.08503401360544;1.52457946994673;1.52457946994673;118;2;2;0;2;NaN;588;Ceylan et al. (2021);Experiment 1;Orientation;1
1;28;-11;126;-3;0.0850340136054424;2.13287795783754;2.13287795783754;129;2;2;0;2;NaN;588;Ceylan et al. (2021);Experiment 1;Orientation;1
1;28;-62;14;3;6.08503401360544;1.89118622619935;1.89118622619935;11;2;2;0;2;NaN;588;Ceylan et al. (2021);Experiment 1;Orientation;1
1;28;24;156;-11;-7.91496598639456;1.73291074052668;1.73291074052668;167;2;2;0;2;NaN;588;Ceylan et al. (2021);Experiment 1;Orientation;1
1;28;-14;1;0;3.08503401360544;2.64113460704857;2.64113460704857;1;2;2;0;2;NaN;588;Ceylan et al. (2021);Experiment 1;Orientation;1
1;28;-48;35;-14;-10.9149659863946;1.28297407209311;1.28297407209311;49;2;2;0;2;NaN;588;Ceylan et al. (2021);Experiment 1;Orientation;1
1;28;23;28;2;5.08503401360544;1.06639128403094;1.06639128403094;26;2;2;0;2;NaN;588;Ceylan et al. (2021);Experiment 1;Orientation;1
1;28;89;117;0;3.08503401360544;1.25800579824954;1.25800579824954;117;2;2;0;2;NaN;588;Ceylan et al. (2021);Experiment 1;Orientation;1
1;28;37;79;-1;2.08503401360544;2.15781061144844;2.15781061144844;80;2;2;0;2;NaN;588;Ceylan et al. (2021);Experiment 1;Orientation;1
1;28;32;57;9;12.0850340136054;1.14131844367375;1.14131844367375;48;2;2;0;2;NaN;588;Ceylan et al. (2021);Experiment 1;Orientation;1
1;28;47;0;-1;2.08503401360544;2.95769433251917;2.95769433251917;1;2;2;0;2;NaN;588;Ceylan et al. (2021);Experiment 1;Orientation;1
1;28;-70;74;3;6.08503401360544;1.09130280699537;1.09130280699537;71;2;2;0;2;NaN;588;Ceylan et al. (2021);Experiment 1;Orientation;1
1;28;-83;136;-18;-14.9149659863946;1.87461828996311;1.87461828996311;154;2;2;0;2;NaN;588;Ceylan et al. (2021);Experiment 1;Orientation;1
1;28;46;109;1;4.08503401360544;1.74957195347406;1.74957195347406;108;2;2;0;2;NaN;588;Ceylan et al. (2021);Experiment 1;Orientation;1
1;28;-87;5;-10;-6.91496598639456;1.81621227726782;1.81621227726782;15;2;2;0;2;NaN;588;Ceylan et al. (2021);Experiment 1;Orientation;1
1;28;1;16;2;5.08503401360544;1.33296646506005;1.33296646506005;14;2;2;0;2;NaN;588;Ceylan et al. (2021);Experiment 1;Orientation;1
1;28;-36;27;-23;-19.9149659863946;1.89123452481999;1.89123452481999;50;2;2;0;2;NaN;588;Ceylan et al. (2021);Experiment 1;Orientation;1
1;28;15;21;-14;-10.9149659863946;1.60795707701573;1.60795707701573;35;2;2;0;2;NaN;588;Ceylan et al. (2021);Experiment 1;Orientation;1
1;28;39;161;-15;-11.9149659863946;1.38292384152737;1.38292384152737;176;2;2;0;2;NaN;588;Ceylan et al. (2021);Experiment 1;Orientation;1
1;28;4;142;-30;-26.9149659863946;1.05796800457892;1.05796800457892;172;2;2;0;2;NaN;588;Ceylan et al. (2021);Experiment 1;Orientation;1
1;28;-44;18;-18;-14.9149659863946;2.15784140181904;2.15784140181904;36;2;2;0;2;NaN;588;Ceylan et al. (2021);Experiment 1;Orientation;1
1;28;88;127;-1;2.08503401360544;1.42463483224083;1.42463483224083;128;2;2;0;2;NaN;588;Ceylan et al. (2021);Experiment 1;Orientation;1
1;28;-46;164;-10;-6.91496598639456;1.15796577076753;1.15796577076753;174;2;2;0;2;NaN;588;Ceylan et al. (2021);Experiment 1;Orientation;1
1;28;-89;79;-4;-0.914965986394558;1.39955698090171;1.39955698090171;83;2;2;0;2;NaN;588;Ceylan et al. (2021);Experiment 1;Orientation;1
1;28;33;48;-2;1.08503401360544;1.34130190139604;1.34130190139604;50;2;2;0;2;NaN;588;Ceylan et al. (2021);Experiment 1;Orientation;1
1;28;-55;113;8;11.0850340136054;1.74957799080175;1.74957799080175;105;2;2;0;2;NaN;588;Ceylan et al. (2021);Experiment 1;Orientation;1
1;28;-66;158;-13;-9.91496598639456;1.61620014223945;1.61620014223945;171;2;2;0;2;NaN;588;Ceylan et al. (2021);Experiment 1;Orientation;1
1;28;-65;33;-23;-19.9149659863946;1.49128994748753;1.49128994748753;56;2;2;0;2;NaN;588;Ceylan et al. (2021);Experiment 1;Orientation;1
1;28;85;158;7;10.0850340136054;1.8579081746625;1.8579081746625;151;2;2;0;2;NaN;588;Ceylan et al. (2021);Experiment 1;Orientation;1
1;28;-87;37;-21;-17.9149659863946;0.932982041365449;0.932982041365449;58;2;2;0;2;NaN;588;Ceylan et al. (2021);Experiment 1;Orientation;1
1;28;6;45;-7;-3.91496598639456;1.73288508188398;1.73288508188398;52;2;2;0;2;NaN;588;Ceylan et al. (2021);Experiment 1;Orientation;1
1;28;-15;71;4;7.08503401360544;1.7496063662411;1.7496063662411;67;2;2;0;2;NaN;588;Ceylan et al. (2021);Experiment 1;Orientation;1
1;28;-18;77;-8;-4.91496598639456;1.25801002437856;1.25801002437856;85;2;2;0;2;NaN;588;Ceylan et al. (2021);Experiment 1;Orientation;1
1;28;34;52;1;4.08503401360544;2.34119534256388;2.34119534256388;51;2;2;0;2;NaN;588;Ceylan et al. (2021);Experiment 1;Orientation;1
1;28;61;158;-12;-8.91496598639456;2.07453956321115;2.07453956321115;170;2;2;0;2;NaN;588;Ceylan et al. (2021);Experiment 1;Orientation;1
1;28;-51;24;-17;-13.9149659863946;1.63292987885461;1.63292987885461;41;2;2;0;2;NaN;588;Ceylan et al. (2021);Experiment 1;Orientation;1
1;28;31;14;4;7.08503401360544;3.59095354759438;3.59095354759438;10;2;2;0;2;NaN;588;Ceylan et al. (2021);Experiment 1;Orientation;1
1;28;-40;55;5;8.08503401360544;2.14951381400942;2.14951381400942;50;2;2;0;2;NaN;588;Ceylan et al. (2021);Experiment 1;Orientation;1
1;28;5;44;-1;2.08503401360544;2.00788384423231;2.00788384423231;45;2;2;0;2;NaN;588;Ceylan et al. (2021);Experiment 1;Orientation;1
1;28;-27;100;28;31.0850340136054;2.09117240071919;2.09117240071919;72;2;2;0;2;NaN;588;Ceylan et al. (2021);Experiment 1;Orientation;1
1;28;-64;124;-12;-8.91496598639456;1.70791348751072;1.70791348751072;136;2;2;0;2;NaN;588;Ceylan et al. (2021);Experiment 1;Orientation;1
1;28;-34;150;-20;-16.9149659863946;3.14932665685365;3.14932665685365;170;2;2;0;2;NaN;588;Ceylan et al. (2021);Experiment 1;Orientation;1
1;28;-19;15;6;9.08503401360544;1.69120005167952;1.69120005167952;9;2;2;0;2;NaN;588;Ceylan et al. (2021);Experiment 1;Orientation;1
1;28;56;137;4;7.08503401360544;0.883014099574666;0.883014099574666;133;2;2;0;2;NaN;588;Ceylan et al. (2021);Experiment 1;Orientation;1
1;28;-88;43;2;5.08503401360544;1.7495556526892;1.7495556526892;41;2;2;0;2;NaN;588;Ceylan et al. (2021);Experiment 1;Orientation;1
1;28;70;143;-8;-4.91496598639456;0.832976728517224;0.832976728517224;151;2;2;0;2;NaN;588;Ceylan et al. (2021);Experiment 1;Orientation;1
1;28;57;104;10;13.0850340136054;1.4496031060844;1.4496031060844;94;2;2;0;2;NaN;588;Ceylan et al. (2021);Experiment 1;Orientation;1
1;28;-86;4;4;7.08503401360544;1.38296580095403;1.38296580095403;0;2;2;0;2;NaN;588;Ceylan et al. (2021);Experiment 1;Orientation;1
1;28;-43;30;-13;-9.91496598639456;1.34130854245632;1.34130854245632;43;2;2;0;2;NaN;588;Ceylan et al. (2021);Experiment 1;Orientation;1
1;28;72;155;4;7.08503401360544;1.65792894306924;1.65792894306924;151;2;2;0;2;NaN;588;Ceylan et al. (2021);Experiment 1;Orientation;1
1;28;84;74;7;10.0850340136054;1.21630627845843;1.21630627845843;67;2;2;0;2;NaN;588;Ceylan et al. (2021);Experiment 1;Orientation;1
1;28;83;150;-14;-10.9149659863946;1.44963661325255;1.44963661325255;164;2;2;0;2;NaN;588;Ceylan et al. (2021);Experiment 1;Orientation;1
1;28;7;147;-10;-6.91496598639456;1.49963142115075;1.49963142115075;157;2;2;0;2;NaN;588;Ceylan et al. (2021);Experiment 1;Orientation;1
1;28;-28;20;15;18.0850340136054;1.47462058414749;1.47462058414749;5;2;2;0;2;NaN;588;Ceylan et al. (2021);Experiment 1;Orientation;1
1;28;23;156;-6;-2.91496598639456;1.69954816640302;1.69954816640302;162;2;2;0;2;NaN;588;Ceylan et al. (2021);Experiment 1;Orientation;1
1;28;62;112;12;15.0850340136054;2.21615957139784;2.21615957139784;100;2;2;0;2;NaN;588;Ceylan et al. (2021);Experiment 1;Orientation;1
1;28;31;70;1;4.08503401360544;1.34962465934359;1.34962465934359;69;2;2;0;2;NaN;588;Ceylan et al. (2021);Experiment 1;Orientation;1
1;28;71;178;0;3.08503401360544;0.958039667657431;0.958039667657431;178;2;2;0;2;NaN;588;Ceylan et al. (2021);Experiment 1;Orientation;1
1;28;-75;70;-3;0.0850340136054424;1.37476771382126;1.37476771382126;73;2;2;0;2;NaN;588;Ceylan et al. (2021);Experiment 1;Orientation;1
1;28;-9;76;-6;-2.91496598639456;1.71624892384671;1.71624892384671;82;2;2;0;2;NaN;588;Ceylan et al. (2021);Experiment 1;Orientation;1
1;28;-78;149;-11;-7.91496598639456;1.18300045521437;1.18300045521437;160;2;2;0;2;NaN;588;Ceylan et al. (2021);Experiment 1;Orientation;1
1;28;-38;29;11;14.0850340136054;1.78289498310187;1.78289498310187;18;2;2;0;2;NaN;588;Ceylan et al. (2021);Experiment 1;Orientation;1
1;28;80;123;5;8.08503401360544;1.39125535360017;1.39125535360017;118;2;2;0;2;NaN;588;Ceylan et al. (2021);Experiment 1;Orientation;1
1;28;64;57;3;6.08503401360544;0.941367285653541;0.941367285653541;54;2;2;0;2;NaN;588;Ceylan et al. (2021);Experiment 1;Orientation;1
1;28;45;12;3;6.08503401360544;0.891355875104637;0.891355875104637;9;2;2;0;2;NaN;588;Ceylan et al. (2021);Experiment 1;Orientation;1
1;28;0;22;13;16.0850340136054;1.39966474719904;1.39966474719904;9;2;2;0;2;NaN;588;Ceylan et al. (2021);Experiment 1;Orientation;1
1;28;-70;68;-11;-7.91496598639456;1.57454650613818;1.57454650613818;79;2;2;0;2;NaN;588;Ceylan et al. (2021);Experiment 1;Orientation;1
1;28;65;19;5;8.08503401360544;2.64117113288057;2.64117113288057;14;2;2;0;2;NaN;588;Ceylan et al. (2021);Experiment 1;Orientation;1
1;28;42;144;-8;-4.91496598639456;2.03283491169213;2.03283491169213;152;2;2;0;2;NaN;588;Ceylan et al. (2021);Experiment 1;Orientation;1
1;28;-37;3;-6;-2.91496598639456;1.35792507917949;1.35792507917949;9;2;2;0;2;NaN;588;Ceylan et al. (2021);Experiment 1;Orientation;1
1;28;-12;18;-3;0.0850340136054424;1.09135744480955;1.09135744480955;21;2;2;0;2;NaN;588;Ceylan et al. (2021);Experiment 1;Orientation;1
1;28;10;22;11;14.0850340136054;1.10800205510623;1.10800205510623;11;2;2;0;2;NaN;588;Ceylan et al. (2021);Experiment 1;Orientation;1
1;28;-35;50;4;7.08503401360544;1.5162666735896;1.5162666735896;46;2;2;0;2;NaN;588;Ceylan et al. (2021);Experiment 1;Orientation;1
1;28;-4;59;9;12.0850340136054;1.28298735421367;1.28298735421367;50;2;2;0;2;NaN;588;Ceylan et al. (2021);Experiment 1;Orientation;1
1;28;-22;61;-11;-7.91496598639456;1.17461521092628;1.17461521092628;72;2;2;0;2;NaN;588;Ceylan et al. (2021);Experiment 1;Orientation;1
1;28;-39;118;7;10.0850340136054;1.84953198636504;1.84953198636504;111;2;2;0;2;NaN;588;Ceylan et al. (2021);Experiment 1;Orientation;1
1;28;-31;125;-17;-13.9149659863946;1.80785842708292;1.80785842708292;142;2;2;0;2;NaN;588;Ceylan et al. (2021);Experiment 1;Orientation;1
1;28;47;94;-1;2.08503401360544;1.73290832559542;1.73290832559542;95;2;2;0;2;NaN;588;Ceylan et al. (2021);Experiment 1;Orientation;1
1;28;-79;178;4;7.08503401360544;0.857978811395242;0.857978811395242;174;2;2;0;2;NaN;588;Ceylan et al. (2021);Experiment 1;Orientation;1
1;28;-36;23;-7;-3.91496598639456;1.24958131133144;1.24958131133144;30;2;2;0;2;NaN;588;Ceylan et al. (2021);Experiment 1;Orientation;1
1;28;7;28;5;8.08503401360544;2.49114474975886;2.49114474975886;23;2;2;0;2;NaN;588;Ceylan et al. (2021);Experiment 1;Orientation;1
1;28;-71;92;-2;1.08503401360544;0.799695658316523;0.799695658316523;94;2;2;0;2;NaN;588;Ceylan et al. (2021);Experiment 1;Orientation;1
1;28;-39;118;-15;-11.9149659863946;3.05772651147527;3.05772651147527;133;2;2;0;2;NaN;588;Ceylan et al. (2021);Experiment 1;Orientation;1
1;28;14;122;3;6.08503401360544;2.07451541390083;2.07451541390083;119;2;2;0;2;NaN;588;Ceylan et al. (2021);Experiment 1;Orientation;1
1;28;-45;125;-39;NaN;1.71625103691076;NaN;164;2;2;1;2;NaN;588;Ceylan et al. (2021);Experiment 1;Orientation;1
1;28;15;142;-7;NaN;2.22448293307843;NaN;149;2;2;1;2;NaN;588;Ceylan et al. (2021);Experiment 1;Orientation;1
1;28;NaN;15;-10;-6.91496598639456;1.13299840252284;1.13299840252284;25;1;1;0;2;NaN;588;Ceylan et al. (2021);Experiment 1;Orientation;0
1;28;-5;29;-1;2.08503401360544;1.13300987344564;1.13300987344564;30;1;1;0;1;NaN;588;Ceylan et al. (2021);Experiment 1;Orientation;0
1;28;58;129;-23;-19.9149659863946;1.5329073596231;1.5329073596231;152;1;1;0;1;NaN;588;Ceylan et al. (2021);Experiment 1;Orientation;0
1;28;-79;52;1;4.08503401360544;2.34936807292115;2.34936807292115;51;1;1;0;1;NaN;588;Ceylan et al. (2021);Experiment 1;Orientation;0
1;28;-54;111;6;9.08503401360544;2.03283219489458;2.03283219489458;105;1;1;0;1;NaN;588;Ceylan et al. (2021);Experiment 1;Orientation;0
1;28;71;49;15;18.0850340136054;1.4579795962477;1.4579795962477;34;1;1;0;1;NaN;588;Ceylan et al. (2021);Experiment 1;Orientation;0
1;28;4;40;10;13.0850340136054;1.19961065274356;1.19961065274356;30;1;1;0;1;NaN;588;Ceylan et al. (2021);Experiment 1;Orientation;0
1;28;-58;92;4;7.08503401360544;1.22462782894081;1.22462782894081;88;1;1;0;1;NaN;588;Ceylan et al. (2021);Experiment 1;Orientation;0
1;28;74;2;-12;-8.91496598639456;1.89955245290548;1.89955245290548;14;1;1;0;1;NaN;588;Ceylan et al. (2021);Experiment 1;Orientation;0
1;28;-1;7;-8;-4.91496598639456;1.64962731576816;1.64962731576816;15;1;1;0;1;NaN;588;Ceylan et al. (2021);Experiment 1;Orientation;0
1;28;72;116;-7;-3.91496598639456;0.73304839159573;0.73304839159573;123;1;1;0;1;NaN;588;Ceylan et al. (2021);Experiment 1;Orientation;0
1;28;83;32;-8;-4.91496598639456;1.7829013222954;1.7829013222954;40;1;1;0;1;NaN;588;Ceylan et al. (2021);Experiment 1;Orientation;0
1;28;29;7;-4;-0.914965986394558;1.39131874554005;1.39131874554005;11;1;1;0;1;NaN;588;Ceylan et al. (2021);Experiment 1;Orientation;0
1;28;-53;53;-11;-7.91496598639456;3.34095867932228;3.34095867932228;64;1;1;0;1;NaN;588;Ceylan et al. (2021);Experiment 1;Orientation;0
1;28;68;176;0;3.08503401360544;2.72444459604822;2.72444459604822;176;1;1;0;1;NaN;588;Ceylan et al. (2021);Experiment 1;Orientation;0
1;28;-76;73;1;4.08503401360544;1.64120403631568;1.64120403631568;72;1;1;0;1;NaN;588;Ceylan et al. (2021);Experiment 1;Orientation;0
1;28;50;64;42;NaN;2.4827573924058;NaN;22;1;1;1;1;NaN;588;Ceylan et al. (2021);Experiment 1;Orientation;0
1;28;34;152;-16;NaN;2.22451221411757;NaN;168;1;1;1;1;NaN;588;Ceylan et al. (2021);Experiment 1;Orientation;0
1;28;-27;7;-8;-4.91496598639456;1.6329642916221;1.6329642916221;15;1;1;0;1;NaN;588;Ceylan et al. (2021);Experiment 1;Orientation;0
1;28;54;157;16;19.0850340136054;3.02440348184791;3.02440348184791;141;1;1;0;1;NaN;588;Ceylan et al. (2021);Experiment 1;Orientation;0
1;28;-70;37;6;9.08503401360544;1.79126271913992;1.79126271913992;31;1;1;0;1;NaN;588;Ceylan et al. (2021);Experiment 1;Orientation;0
1;28;-72;81;-22;-18.9149659863946;0.891346215380509;0.891346215380509;103;1;1;0;1;NaN;588;Ceylan et al. (2021);Experiment 1;Orientation;0
1;28;82;4;-17;-13.9149659863946;1.72457922845388;1.72457922845388;21;1;1;0;1;NaN;588;Ceylan et al. (2021);Experiment 1;Orientation;0
1;28;52;131;-18;-14.9149659863946;2.12449663781217;2.12449663781217;149;1;1;0;1;NaN;588;Ceylan et al. (2021);Experiment 1;Orientation;0
1;28;49;114;14;17.0850340136054;1.35795768074877;1.35795768074877;100;1;1;0;1;NaN;588;Ceylan et al. (2021);Experiment 1;Orientation;0
1;28;-82;10;8;11.0850340136054;1.61626896777398;1.61626896777398;2;1;1;0;1;NaN;588;Ceylan et al. (2021);Experiment 1;Orientation;0
1;28;23;153;-6;-2.91496598639456;1.63290905007489;1.63290905007489;159;1;1;0;1;NaN;588;Ceylan et al. (2021);Experiment 1;Orientation;0
1;28;-15;168;-6;-2.91496598639456;1.24133824610817;1.24133824610817;174;1;1;0;1;NaN;588;Ceylan et al. (2021);Experiment 1;Orientation;0
1;28;-33;19;-8;-4.91496598639456;1.99953633324094;1.99953633324094;27;1;1;0;1;NaN;588;Ceylan et al. (2021);Experiment 1;Orientation;0
1;28;22;176;-9;-5.91496598639456;1.72462601774259;1.72462601774259;5;1;1;0;1;NaN;588;Ceylan et al. (2021);Experiment 1;Orientation;0
1;28;49;117;-19;-15.9149659863946;1.47461092442381;1.47461092442381;136;1;1;0;1;NaN;588;Ceylan et al. (2021);Experiment 1;Orientation;0
1;28;55;88;7;10.0850340136054;1.55793781794091;1.55793781794091;81;1;1;0;1;NaN;588;Ceylan et al. (2021);Experiment 1;Orientation;0
1;28;63;70;52;NaN;1.61625176139069;NaN;18;1;1;1;1;NaN;588;Ceylan et al. (2021);Experiment 1;Orientation;0
1;28;-83;94;-7;NaN;8.79862735319966;NaN;101;1;1;1;1;NaN;588;Ceylan et al. (2021);Experiment 1;Orientation;0
1;28;-26;111;-16;-12.9149659863946;2.02453509558927;2.02453509558927;127;1;1;0;1;NaN;588;Ceylan et al. (2021);Experiment 1;Orientation;0
1;28;-86;54;21;24.0850340136054;1.94120427780899;1.94120427780899;33;1;1;0;1;NaN;588;Ceylan et al. (2021);Experiment 1;Orientation;0
1;28;-42;53;-22;-18.9149659863946;2.05787140733719;2.05787140733719;75;1;1;0;1;NaN;588;Ceylan et al. (2021);Experiment 1;Orientation;0
1;28;-67;134;-8;-4.91496598639456;1.54130498043287;1.54130498043287;142;1;1;0;1;NaN;588;Ceylan et al. (2021);Experiment 1;Orientation;0
1;28;27;114;-1;2.08503401360544;2.19948568006248;2.19948568006248;115;1;1;0;1;NaN;588;Ceylan et al. (2021);Experiment 1;Orientation;0
1;28;12;130;27;30.0850340136054;1.68290144304183;1.68290144304183;103;1;1;0;1;NaN;588;Ceylan et al. (2021);Experiment 1;Orientation;0
1;28;-50;169;16;19.0850340136054;1.93289842437844;1.93289842437844;153;1;1;0;1;NaN;588;Ceylan et al. (2021);Experiment 1;Orientation;0
1;28;56;105;8;11.0850340136054;1.84956458793431;1.84956458793431;97;1;1;0;1;NaN;588;Ceylan et al. (2021);Experiment 1;Orientation;0
1;28;54;72;29;32.0850340136054;1.74957617960308;1.74957617960308;43;1;1;0;1;NaN;588;Ceylan et al. (2021);Experiment 1;Orientation;0
1;28;24;20;1;4.08503401360544;1.08299061437037;1.08299061437037;19;1;1;0;1;NaN;588;Ceylan et al. (2021);Experiment 1;Orientation;0
1;28;52;116;-31;-27.9149659863946;2.15788788924192;2.15788788924192;147;1;1;0;1;NaN;588;Ceylan et al. (2021);Experiment 1;Orientation;0
1;28;-21;155;-13;-9.91496598639456;1.157950375582;1.157950375582;168;1;1;0;1;NaN;588;Ceylan et al. (2021);Experiment 1;Orientation;0
1;28;-56;22;-22;-18.9149659863946;3.14937374800911;3.14937374800911;44;1;1;0;1;NaN;588;Ceylan et al. (2021);Experiment 1;Orientation;0
1;28;57;160;-7;-3.91496598639456;1.16631207429282;1.16631207429282;167;1;1;0;1;NaN;588;Ceylan et al. (2021);Experiment 1;Orientation;0
1;28;-7;173;-1;2.08503401360544;1.1246892285626;1.1246892285626;174;1;1;0;1;NaN;588;Ceylan et al. (2021);Experiment 1;Orientation;0
1;28;-24;14;-4;-0.914965986394558;2.83275727165892;2.83275727165892;18;1;1;0;1;NaN;588;Ceylan et al. (2021);Experiment 1;Orientation;0
1;28;40;150;-8;-4.91496598639456;1.98287179976342;1.98287179976342;158;1;1;0;1;NaN;588;Ceylan et al. (2021);Experiment 1;Orientation;0
1;28;16;126;-16;-12.9149659863946;2.21615806206592;2.21615806206592;142;1;1;0;1;NaN;588;Ceylan et al. (2021);Experiment 1;Orientation;0
1;28;18;131;7;10.0850340136054;1.44128366866698;1.44128366866698;124;1;1;0;1;NaN;588;Ceylan et al. (2021);Experiment 1;Orientation;0
1;28;9;117;2;5.08503401360544;1.0246658037313;1.0246658037313;115;1;1;0;1;NaN;588;Ceylan et al. (2021);Experiment 1;Orientation;0
1;28;53;65;3;6.08503401360544;1.1080231857527;1.1080231857527;62;1;1;0;1;NaN;588;Ceylan et al. (2021);Experiment 1;Orientation;0
1;28;-30;87;-5;-1.91496598639456;1.89958958247053;1.89958958247053;92;1;1;0;1;NaN;588;Ceylan et al. (2021);Experiment 1;Orientation;0
1;28;-29;118;-3;0.0850340136054424;1.36630579547227;1.36630579547227;121;1;1;0;1;NaN;588;Ceylan et al. (2021);Experiment 1;Orientation;0
1;28;-88;60;31;34.0850340136054;2.06622887991898;2.06622887991898;29;1;1;0;1;NaN;588;Ceylan et al. (2021);Experiment 1;Orientation;0
1;28;9;40;20;23.0850340136054;1.25793968951211;1.25793968951211;20;1;1;0;1;NaN;588;Ceylan et al. (2021);Experiment 1;Orientation;0
1;28;45;130;-25;-21.9149659863946;1.78288109724826;1.78288109724826;155;1;1;0;1;NaN;588;Ceylan et al. (2021);Experiment 1;Orientation;0
1;28;-59;41;7;10.0850340136054;1.52457192328757;1.52457192328757;34;1;1;0;1;NaN;588;Ceylan et al. (2021);Experiment 1;Orientation;0
1;28;30;2;-2;1.08503401360544;1.37467081471323;1.37467081471323;4;1;1;0;1;NaN;588;Ceylan et al. (2021);Experiment 1;Orientation;0
1;28;-59;68;5;8.08503401360544;1.61624934645943;1.61624934645943;63;1;1;0;1;NaN;588;Ceylan et al. (2021);Experiment 1;Orientation;0
1;28;31;44;12;15.0850340136054;1.48294937942319;1.48294937942319;32;1;1;0;1;NaN;588;Ceylan et al. (2021);Experiment 1;Orientation;0
1;28;43;138;-31;-27.9149659863946;1.5245981856624;1.5245981856624;169;1;1;0;1;NaN;588;Ceylan et al. (2021);Experiment 1;Orientation;0
1;28;86;84;1;4.08503401360544;1.24133975544009;1.24133975544009;83;1;1;0;1;NaN;588;Ceylan et al. (2021);Experiment 1;Orientation;0
1;28;-7;85;-5;-1.91496598639456;2.38286497758327;2.38286497758327;90;1;1;0;1;NaN;588;Ceylan et al. (2021);Experiment 1;Orientation;0
1;28;88;6;4;7.08503401360544;1.64959380859955;1.64959380859955;2;1;1;0;1;NaN;588;Ceylan et al. (2021);Experiment 1;Orientation;0
1;28;82;90;-10;-6.91496598639456;1.36630066374391;1.36630066374391;100;1;1;0;1;NaN;588;Ceylan et al. (2021);Experiment 1;Orientation;0
1;28;8;91;-1;2.08503401360544;2.30789404731559;2.30789404731559;92;1;1;0;1;NaN;588;Ceylan et al. (2021);Experiment 1;Orientation;0
1;28;16;74;-2;1.08503401360544;1.19132834489074;1.19132834489074;76;1;1;0;1;NaN;588;Ceylan et al. (2021);Experiment 1;Orientation;0
1;28;51;16;-9;-5.91496598639456;1.28296924223105;1.28296924223105;25;1;1;0;1;NaN;588;Ceylan et al. (2021);Experiment 1;Orientation;0
1;28;29;168;-8;-4.91496598639456;1.24964379767243;1.24964379767243;176;1;1;0;1;NaN;588;Ceylan et al. (2021);Experiment 1;Orientation;0
1;28;69;100;-7;-3.91496598639456;1.65792683000427;1.65792683000427;107;1;1;0;1;NaN;588;Ceylan et al. (2021);Experiment 1;Orientation;0
1;28;44;74;11;14.0850340136054;2.25783131948219;2.25783131948219;63;1;1;0;1;NaN;588;Ceylan et al. (2021);Experiment 1;Orientation;0
1;28;4;73;14;17.0850340136054;2.94105575955018;2.94105575955018;59;1;1;0;1;NaN;588;Ceylan et al. (2021);Experiment 1;Orientation;0
1;28;41;31;13;16.0850340136054;1.74125070485798;1.74125070485798;18;1;1;0;1;NaN;588;Ceylan et al. (2021);Experiment 1;Orientation;0
1;28;-28;64;18;21.0850340136054;2.37444562239398;2.37444562239398;46;1;1;0;1;NaN;588;Ceylan et al. (2021);Experiment 1;Orientation;0
1;28;43;3;0;3.08503401360544;1.3079634765827;1.3079634765827;3;1;1;0;1;NaN;588;Ceylan et al. (2021);Experiment 1;Orientation;0
1;28;-69;77;5;8.08503401360544;2.19115929971849;2.19115929971849;72;1;1;0;1;NaN;588;Ceylan et al. (2021);Experiment 1;Orientation;0
1;28;2;76;6;9.08503401360544;1.24959700838326;1.24959700838326;70;1;1;0;1;NaN;588;Ceylan et al. (2021);Experiment 1;Orientation;0
1;28;-21;90;-1;2.08503401360544;0.883011986510155;0.883011986510155;91;1;1;0;1;NaN;588;Ceylan et al. (2021);Experiment 1;Orientation;0
1;28;-81;156;-16;-12.9149659863946;1.56627234867756;1.56627234867756;172;1;1;0;1;NaN;588;Ceylan et al. (2021);Experiment 1;Orientation;0
1;28;-38;18;-12;-8.91496598639456;1.39126199466045;1.39126199466045;30;1;1;0;1;NaN;588;Ceylan et al. (2021);Experiment 1;Orientation;0
1;28;30;177;-3;0.0850340136054424;1.14129670929424;1.14129670929424;0;1;1;0;1;NaN;588;Ceylan et al. (2021);Experiment 1;Orientation;0
1;28;48;135;3;6.08503401360544;2.59950813892146;2.59950813892146;132;1;1;0;1;NaN;588;Ceylan et al. (2021);Experiment 1;Orientation;0
1;28;-17;139;-10;-6.91496598639456;2.24116376734082;2.24116376734082;149;1;1;0;1;NaN;588;Ceylan et al. (2021);Experiment 1;Orientation;0
1;28;-57;37;11;14.0850340136054;1.39132629219921;1.39132629219921;26;1;1;0;1;NaN;588;Ceylan et al. (2021);Experiment 1;Orientation;0
1;28;82;122;-2;1.08503401360544;1.42464630316317;1.42464630316317;124;1;1;0;1;NaN;588;Ceylan et al. (2021);Experiment 1;Orientation;0
1;28;-56;3;3;6.08503401360544;1.7829182268124;1.7829182268124;0;1;1;0;1;NaN;588;Ceylan et al. (2021);Experiment 1;Orientation;0
1;28;-1;9;8;11.0850340136054;2.24117282333236;2.24117282333236;1;1;1;0;1;NaN;588;Ceylan et al. (2021);Experiment 1;Orientation;0
1;28;-49;32;-18;-14.9149659863946;1.40795943157354;1.40795943157354;50;1;1;0;1;NaN;588;Ceylan et al. (2021);Experiment 1;Orientation;0
1;28;-50;85;-15;-11.9149659863946;1.88287946716991;1.88287946716991;100;1;1;0;1;NaN;588;Ceylan et al. (2021);Experiment 1;Orientation;0
1;28;0;87;-13;-9.91496598639456;1.41624475809022;1.41624475809022;100;1;1;0;1;NaN;588;Ceylan et al. (2021);Experiment 1;Orientation;0
1;28;37;34;-29;-25.9149659863946;2.05787744466488;2.05787744466488;63;1;1;0;1;NaN;588;Ceylan et al. (2021);Experiment 1;Orientation;0
1;28;65;175;-3;0.0850340136054424;1.341320918978;1.341320918978;178;1;1;0;1;NaN;588;Ceylan et al. (2021);Experiment 1;Orientation;0
1;28;-39;36;-1;2.08503401360544;1.94125197269659;1.94125197269659;37;1;1;0;1;NaN;588;Ceylan et al. (2021);Experiment 1;Orientation;0
1;28;-89;108;-18;-14.9149659863946;1.5746687620217;1.5746687620217;126;1;1;0;1;NaN;588;Ceylan et al. (2021);Experiment 1;Orientation;0
1;28;58;71;3;6.08503401360544;1.54967845193278;1.54967845193278;68;1;1;0;1;NaN;588;Ceylan et al. (2021);Experiment 1;Orientation;0
1;28;-50;107;-11;-7.91496598639456;1.41634346839646;1.41634346839646;118;1;1;0;1;NaN;588;Ceylan et al. (2021);Experiment 1;Orientation;0
1;28;-81;7;-12;-8.91496598639456;4.2826199828296;4.2826199828296;19;1;1;0;1;NaN;588;Ceylan et al. (2021);Experiment 1;Orientation;0
1;28;-71;92;2;5.08503401360544;1.2746516160114;1.2746516160114;90;1;1;0;1;NaN;588;Ceylan et al. (2021);Experiment 1;Orientation;0
1;28;-15;97;-8;-4.91496598639456;1.24970900081007;1.24970900081007;105;1;1;0;1;NaN;588;Ceylan et al. (2021);Experiment 1;Orientation;0
1;28;-60;112;-53;NaN;1.73295752981539;NaN;165;1;1;1;1;NaN;588;Ceylan et al. (2021);Experiment 1;Orientation;0
1;28;-16;4;3;NaN;1.68293464834369;NaN;1;1;1;1;1;NaN;588;Ceylan et al. (2021);Experiment 1;Orientation;0
1;28;11;164;-6;-2.91496598639456;1.233024846018;1.233024846018;170;1;1;0;1;NaN;588;Ceylan et al. (2021);Experiment 1;Orientation;0
1;28;27;145;2;5.08503401360544;1.1829539677924;1.1829539677924;143;1;1;0;1;NaN;588;Ceylan et al. (2021);Experiment 1;Orientation;0
1;28;-53;18;2;5.08503401360544;1.40795520544407;1.40795520544407;16;1;1;0;1;NaN;588;Ceylan et al. (2021);Experiment 1;Orientation;0
1;28;-62;81;3;6.08503401360544;2.06621680526359;2.06621680526359;78;1;1;0;1;NaN;588;Ceylan et al. (2021);Experiment 1;Orientation;0
1;28;42;32;-4;-0.914965986394558;1.70791046884688;1.70791046884688;36;1;1;0;1;NaN;588;Ceylan et al. (2021);Experiment 1;Orientation;0
1;28;-23;79;20;23.0850340136054;2.54113925579077;2.54113925579077;59;1;1;0;1;NaN;588;Ceylan et al. (2021);Experiment 1;Orientation;0
1;28;2;80;23;26.0850340136054;2.25783433814604;2.25783433814604;57;1;1;0;1;NaN;588;Ceylan et al. (2021);Experiment 1;Orientation;0
1;28;-5;79;17;20.0850340136054;1.77457162142082;1.77457162142082;62;1;1;0;1;NaN;588;Ceylan et al. (2021);Experiment 1;Orientation;0
1;28;26;66;30;33.0850340136054;2.30779805380735;2.30779805380735;36;1;1;0;1;NaN;588;Ceylan et al. (2021);Experiment 1;Orientation;0
1;28;17;30;11;14.0850340136054;1.9828784408237;1.9828784408237;19;1;1;0;1;NaN;588;Ceylan et al. (2021);Experiment 1;Orientation;0
1;28;23;177;1;4.08503401360544;1.7496145166333;1.7496145166333;176;1;1;0;1;NaN;588;Ceylan et al. (2021);Experiment 1;Orientation;0
1;28;44;137;5;8.08503401360544;1.45792163790293;1.45792163790293;132;1;1;0;1;NaN;588;Ceylan et al. (2021);Experiment 1;Orientation;0
1;28;73;70;11;14.0850340136054;2.14953011479383;2.14953011479383;59;1;1;0;1;NaN;588;Ceylan et al. (2021);Experiment 1;Orientation;0
1;28;-34;87;-6;-2.91496598639456;2.88278588859203;2.88278588859203;93;1;1;0;1;NaN;588;Ceylan et al. (2021);Experiment 1;Orientation;0
1;28;35;29;-29;-25.9149659863946;2.16619676133587;2.16619676133587;58;1;1;0;1;NaN;588;Ceylan et al. (2021);Experiment 1;Orientation;0
1;28;18;26;-14;-10.9149659863946;3.29939409380313;3.29939409380313;40;1;1;0;1;NaN;588;Ceylan et al. (2021);Experiment 1;Orientation;0
1;28;-40;75;-5;-1.91496598639456;1.43297509843887;1.43297509843887;80;1;1;0;1;NaN;588;Ceylan et al. (2021);Experiment 1;Orientation;0
1;28;-46;129;3;6.08503401360544;1.77457705501547;1.77457705501547;126;1;1;0;1;NaN;588;Ceylan et al. (2021);Experiment 1;Orientation;0
1;28;-24;153;3;6.08503401360544;2.34119805936143;2.34119805936143;150;1;1;0;1;NaN;588;Ceylan et al. (2021);Experiment 1;Orientation;0
1;28;57;83;-10;-6.91496598639456;1.84122975533137;1.84122975533137;93;1;1;0;1;NaN;588;Ceylan et al. (2021);Experiment 1;Orientation;0
1;28;13;85;5;8.08503401360544;1.89957267795307;1.89957267795307;80;1;1;0;1;NaN;588;Ceylan et al. (2021);Experiment 1;Orientation;0
1;28;76;179;-5;-1.91496598639456;0.866376130338722;0.866376130338722;4;1;1;0;1;NaN;588;Ceylan et al. (2021);Experiment 1;Orientation;0
1;28;3;1;0;3.08503401360544;1.61629915441199;1.61629915441199;1;1;1;0;1;NaN;588;Ceylan et al. (2021);Experiment 1;Orientation;0
1;28;-66;72;5;8.08503401360544;1.28293452759726;1.28293452759726;67;1;1;0;1;NaN;588;Ceylan et al. (2021);Experiment 1;Orientation;0
1;28;-33;105;5;8.08503401360544;1.99125372352182;1.99125372352182;100;1;1;0;1;NaN;588;Ceylan et al. (2021);Experiment 1;Orientation;0
1;28;-63;147;-16;-12.9149659863946;1.58296042773236;1.58296042773236;163;1;1;0;1;NaN;588;Ceylan et al. (2021);Experiment 1;Orientation;0
1;28;-18;178;-3;0.0850340136054424;1.57463344365533;1.57463344365533;1;1;1;0;1;NaN;588;Ceylan et al. (2021);Experiment 1;Orientation;0
1;28;-73;79;5;8.08503401360544;2.4828388963283;2.4828388963283;74;1;1;0;1;NaN;588;Ceylan et al. (2021);Experiment 1;Orientation;0
1;28;41;17;-16;-12.9149659863946;1.5412693602002;1.5412693602002;33;1;1;0;1;NaN;588;Ceylan et al. (2021);Experiment 1;Orientation;0
1;28;-53;86;0;3.08503401360544;2.02449313616262;2.02449313616262;86;1;1;0;1;NaN;588;Ceylan et al. (2021);Experiment 1;Orientation;0
1;28;-66;142;-10;-6.91496598639456;1.74956742547784;1.74956742547784;152;1;1;0;1;NaN;588;Ceylan et al. (2021);Experiment 1;Orientation;0
1;28;17;140;5;8.08503401360544;1.59962677240856;1.59962677240856;135;1;1;0;1;NaN;588;Ceylan et al. (2021);Experiment 1;Orientation;0
1;28;49;84;-2;1.08503401360544;1.34968050462385;1.34968050462385;86;1;1;0;1;NaN;588;Ceylan et al. (2021);Experiment 1;Orientation;0
1;28;-57;135;-8;-4.91496598639456;1.32461774660351;1.32461774660351;143;1;1;0;1;NaN;588;Ceylan et al. (2021);Experiment 1;Orientation;0
1;28;-84;70;23;26.0850340136054;1.24129266428463;1.24129266428463;47;1;1;0;1;NaN;588;Ceylan et al. (2021);Experiment 1;Orientation;0
1;28;62;137;-28;-24.9149659863946;2.30779926127252;2.30779926127252;165;1;1;0;1;NaN;588;Ceylan et al. (2021);Experiment 1;Orientation;0
1;28;-40;49;24;27.0850340136054;2.18281692045548;2.18281692045548;25;1;1;0;1;NaN;588;Ceylan et al. (2021);Experiment 1;Orientation;0
1;28;79;120;-6;-2.91496598639456;1.30798460722963;1.30798460722963;126;1;1;0;1;NaN;588;Ceylan et al. (2021);Experiment 1;Orientation;0
1;28;-22;141;-7;-3.91496598639456;1.33312856730618;1.33312856730618;148;1;1;0;1;NaN;588;Ceylan et al. (2021);Experiment 1;Orientation;0
1;28;71;96;19;22.0850340136054;1.09961801828376;1.09961801828376;77;1;1;0;1;NaN;588;Ceylan et al. (2021);Experiment 1;Orientation;0
1;28;40;54;17;20.0850340136054;1.78293724439482;1.78293724439482;37;1;1;0;1;NaN;588;Ceylan et al. (2021);Experiment 1;Orientation;0
1;28;69;116;-32;-28.9149659863946;1.83291152537913;1.83291152537913;148;1;1;0;1;NaN;588;Ceylan et al. (2021);Experiment 1;Orientation;0
1;28;1;130;-17;-13.9149659863946;1.73291013679409;1.73291013679409;147;1;1;0;1;NaN;588;Ceylan et al. (2021);Experiment 1;Orientation;0
1;28;36;116;5;8.08503401360544;1.33298819943957;1.33298819943957;111;1;1;0;1;NaN;588;Ceylan et al. (2021);Experiment 1;Orientation;0
1;28;12;114;15;18.0850340136054;1.63290723887667;1.63290723887667;99;1;1;0;1;NaN;588;Ceylan et al. (2021);Experiment 1;Orientation;0
1;28;29;77;7;10.0850340136054;2.08286684915493;2.08286684915493;70;1;1;0;1;NaN;588;Ceylan et al. (2021);Experiment 1;Orientation;0
1;28;-65;111;-24;-20.9149659863946;1.63290452207866;1.63290452207866;135;1;1;0;1;NaN;588;Ceylan et al. (2021);Experiment 1;Orientation;0
1;28;-71;25;-1;2.08503401360544;1.33296163519799;1.33296163519799;26;1;1;0;1;NaN;588;Ceylan et al. (2021);Experiment 1;Orientation;0
1;28;-32;41;-17;-13.9149659863946;2.79945295774723;2.79945295774723;58;1;1;0;1;NaN;588;Ceylan et al. (2021);Experiment 1;Orientation;0
1;28;-3;59;-2;1.08503401360544;2.56613560320739;2.56613560320739;61;1;1;0;1;NaN;588;Ceylan et al. (2021);Experiment 1;Orientation;0
1;28;-74;124;-11;-7.91496598639456;1.36627440136863;1.36627440136863;135;1;1;0;1;NaN;588;Ceylan et al. (2021);Experiment 1;Orientation;0
1;28;-44;173;-6;-2.91496598639456;1.49127274110333;1.49127274110333;179;1;1;0;1;NaN;588;Ceylan et al. (2021);Experiment 1;Orientation;0
1;28;36;135;-8;-4.91496598639456;1.26631285914573;1.26631285914573;143;1;1;0;1;NaN;588;Ceylan et al. (2021);Experiment 1;Orientation;0
1;28;-41;2;-2;1.08503401360544;1.11634051010606;1.11634051010606;4;1;1;0;1;NaN;588;Ceylan et al. (2021);Experiment 1;Orientation;0
1;28;10;169;-5;-1.91496598639456;1.95789296059684;1.95789296059684;174;1;1;0;1;NaN;588;Ceylan et al. (2021);Experiment 1;Orientation;0
1;28;-82;75;-1;2.08503401360544;0.999538144439157;0.999538144439157;76;1;1;0;1;NaN;588;Ceylan et al. (2021);Experiment 1;Orientation;0
1;28;-76;118;-34;-30.9149659863946;0.758045342744936;0.758045342744936;152;1;1;0;1;NaN;588;Ceylan et al. (2021);Experiment 1;Orientation;0
1;28;-28;8;8;11.0850340136054;0.774702631429591;0.774702631429591;0;1;1;0;1;NaN;588;Ceylan et al. (2021);Experiment 1;Orientation;0
1;28;-74;75;1;4.08503401360544;1.38292595459188;1.38292595459188;74;1;1;0;1;NaN;588;Ceylan et al. (2021);Experiment 1;Orientation;0
1;28;81;162;-11;-7.91496598639456;1.974496215199;1.974496215199;173;1;1;0;1;NaN;588;Ceylan et al. (2021);Experiment 1;Orientation;0
1;28;-47;64;24;27.0850340136054;1.73292009838451;1.73292009838451;40;1;1;0;1;NaN;588;Ceylan et al. (2021);Experiment 1;Orientation;0
1;28;83;115;-22;-18.9149659863946;1.59959930256764;1.59959930256764;137;1;1;0;1;NaN;588;Ceylan et al. (2021);Experiment 1;Orientation;0
1;28;87;71;21;24.0850340136054;1.60789428880889;1.60789428880889;50;1;1;0;1;NaN;588;Ceylan et al. (2021);Experiment 1;Orientation;0
1;28;59;142;-29;-25.9149659863946;1.15795671477599;1.15795671477599;171;1;1;0;1;NaN;588;Ceylan et al. (2021);Experiment 1;Orientation;0
1;28;7;145;-19;-15.9149659863946;1.1247203207995;1.1247203207995;164;1;1;0;1;NaN;588;Ceylan et al. (2021);Experiment 1;Orientation;0
1;28;-14;3;5;8.08503401360544;2.40782328983641;2.40782328983641;178;1;1;0;1;NaN;588;Ceylan et al. (2021);Experiment 1;Orientation;0
1;28;19;151;-8;-4.91496598639456;3.49100015576278;3.49100015576278;159;1;1;0;1;NaN;588;Ceylan et al. (2021);Experiment 1;Orientation;0
1;28;53;111;5;8.08503401360544;1.47468971154876;1.47468971154876;106;1;1;0;1;NaN;588;Ceylan et al. (2021);Experiment 1;Orientation;0
1;28;-63;162;-7;-3.91496598639456;0.991340359172682;0.991340359172682;169;1;1;0;1;NaN;588;Ceylan et al. (2021);Experiment 1;Orientation;0
1;28;59;102;-8;-4.91496598639456;0.783041388295715;0.783041388295715;110;1;1;0;1;NaN;588;Ceylan et al. (2021);Experiment 1;Orientation;0
1;28;86;23;-1;2.08503401360544;2.03290796335614;2.03290796335614;24;1;1;0;1;NaN;588;Ceylan et al. (2021);Experiment 1;Orientation;0
1;28;-3;33;6;9.08503401360544;0.858071182507501;0.858071182507501;27;1;1;0;1;NaN;588;Ceylan et al. (2021);Experiment 1;Orientation;0
1;28;49;143;-15;-11.9149659863946;1.39962580643623;1.39962580643623;158;1;1;0;1;NaN;588;Ceylan et al. (2021);Experiment 1;Orientation;0
1;28;16;131;-11;-7.91496598639456;1.40798056222002;1.40798056222002;142;1;1;0;1;NaN;588;Ceylan et al. (2021);Experiment 1;Orientation;0
1;28;-8;136;-14;-10.9149659863946;1.3246548761681;1.3246548761681;150;1;1;0;1;NaN;588;Ceylan et al. (2021);Experiment 1;Orientation;0
1;28;85;66;1;4.08503401360544;1.08305279884462;1.08305279884462;65;1;1;0;1;NaN;588;Ceylan et al. (2021);Experiment 1;Orientation;0
1;28;-2;61;-6;-2.91496598639456;0.741401034315004;0.741401034315004;67;1;1;0;1;NaN;588;Ceylan et al. (2021);Experiment 1;Orientation;0
1;28;41;40;14;17.0850340136054;0.983026959082508;0.983026959082508;26;1;1;0;1;NaN;588;Ceylan et al. (2021);Experiment 1;Orientation;0
1;28;-23;72;23;26.0850340136054;1.82458091890521;1.82458091890521;49;1;1;0;1;NaN;588;Ceylan et al. (2021);Experiment 1;Orientation;0
1;28;-54;97;-6;-2.91496598639456;1.54131947001906;1.54131947001906;103;1;1;0;1;NaN;588;Ceylan et al. (2021);Experiment 1;Orientation;0
1;28;-45;121;-27;-23.9149659863946;1.69122933271865;1.69122933271865;148;1;1;0;1;NaN;588;Ceylan et al. (2021);Experiment 1;Orientation;0
1;28;26;125;3;6.08503401360544;1.52462807043412;1.52462807043412;122;1;1;0;1;NaN;588;Ceylan et al. (2021);Experiment 1;Orientation;0
1;28;-68;14;4;7.08503401360544;1.88289818288513;1.88289818288513;10;1;1;0;1;NaN;588;Ceylan et al. (2021);Experiment 1;Orientation;0
1;28;3;13;6;9.08503401360544;1.22471718138922;1.22471718138922;7;1;1;0;1;NaN;588;Ceylan et al. (2021);Experiment 1;Orientation;0
1;28;20;164;-3;0.0850340136054424;0.874745073842405;0.874745073842405;167;1;1;0;1;NaN;588;Ceylan et al. (2021);Experiment 1;Orientation;0
1;28;-30;19;2;5.08503401360544;1.19131657210164;1.19131657210164;17;1;1;0;1;NaN;588;Ceylan et al. (2021);Experiment 1;Orientation;0
1;28;20;158;-19;-15.9149659863946;1.27464467308482;1.27464467308482;177;1;1;0;1;NaN;588;Ceylan et al. (2021);Experiment 1;Orientation;0
1;28;-44;53;12;15.0850340136054;1.76624976907215;1.76624976907215;41;1;1;0;1;NaN;588;Ceylan et al. (2021);Experiment 1;Orientation;0
1;28;-38;79;0;3.08503401360544;1.74124255446577;1.74124255446577;79;1;1;0;1;NaN;588;Ceylan et al. (2021);Experiment 1;Orientation;0
1;28;80;165;-14;-10.9149659863946;0.899681047983449;0.899681047983449;179;1;1;0;1;NaN;588;Ceylan et al. (2021);Experiment 1;Orientation;0
1;28;-48;59;12;15.0850340136054;1.69958439036873;1.69958439036873;47;1;1;0;1;NaN;588;Ceylan et al. (2021);Experiment 1;Orientation;0
1;28;-40;88;1;4.08503401360544;1.11629221148542;1.11629221148542;87;1;1;0;1;NaN;588;Ceylan et al. (2021);Experiment 1;Orientation;0
1;28;59;32;4;7.08503401360544;0.958051742312364;0.958051742312364;28;1;1;0;1;NaN;588;Ceylan et al. (2021);Experiment 1;Orientation;0
1;28;-23;36;-15;-11.9149659863946;0.93297358910695;0.93297358910695;51;1;1;0;1;NaN;588;Ceylan et al. (2021);Experiment 1;Orientation;0
1;28;70;129;-32;-28.9149659863946;1.85795586955055;1.85795586955055;161;1;1;0;1;NaN;588;Ceylan et al. (2021);Experiment 1;Orientation;0
2;38;NaN;140;-4;-4.99134948096886;0.94967782833919;0.94967782833919;144;1;1;0;2;NaN;578;Ceylan et al. (2021);Experiment 1;Orientation;0
2;38;-22;160;-6;-6.99134948096886;1.86620269118066;1.86620269118066;166;1;1;0;1;NaN;578;Ceylan et al. (2021);Experiment 1;Orientation;0
2;38;-38;25;1;0.00865051903114189;0.932986181862361;0.932986181862361;24;1;1;0;1;NaN;578;Ceylan et al. (2021);Experiment 1;Orientation;0
2;38;5;15;-4;-4.99134948096886;1.09963126476578;1.09963126476578;19;1;1;0;1;NaN;578;Ceylan et al. (2021);Experiment 1;Orientation;0
2;38;21;31;33;32.0086505190311;0.841312836302677;0.841312836302677;178;1;1;0;1;NaN;578;Ceylan et al. (2021);Experiment 1;Orientation;0
2;38;9;78;89;NaN;0.341454866535059;NaN;169;1;1;1;1;NaN;578;Ceylan et al. (2021);Experiment 1;Orientation;0
2;38;-76;46;-19;NaN;3.84096960915122;NaN;65;1;1;1;1;NaN;578;Ceylan et al. (2021);Experiment 1;Orientation;0
2;38;25;42;2;1.00865051903114;1.23293471288343;1.23293471288343;40;1;1;0;1;NaN;578;Ceylan et al. (2021);Experiment 1;Orientation;0
2;38;16;144;-60;NaN;1.0163013274796;NaN;24;1;1;1;1;NaN;578;Ceylan et al. (2021);Experiment 1;Orientation;0
2;38;-49;57;-16;NaN;0.891357588658138;NaN;73;1;1;1;1;NaN;578;Ceylan et al. (2021);Experiment 1;Orientation;0
2;38;-12;68;-17;-17.9913494809689;1.19963262318197;1.19963262318197;85;1;1;0;1;NaN;578;Ceylan et al. (2021);Experiment 1;Orientation;0
2;38;-35;129;9;8.00865051903114;2.32453681692277;2.32453681692277;120;1;1;0;1;NaN;578;Ceylan et al. (2021);Experiment 1;Orientation;0
2;38;-39;128;-31;-31.9913494809689;1.0663177039678;1.0663177039678;159;1;1;0;1;NaN;578;Ceylan et al. (2021);Experiment 1;Orientation;0
2;38;72;89;2;1.00865051903114;1.22463266091654;1.22463266091654;87;1;1;0;1;NaN;578;Ceylan et al. (2021);Experiment 1;Orientation;0
2;38;-14;97;-4;-4.99134948096886;1.01634600436228;1.01634600436228;101;1;1;0;1;NaN;578;Ceylan et al. (2021);Experiment 1;Orientation;0
2;38;10;94;3;2.00865051903114;1.14965307493185;1.14965307493185;91;1;1;0;1;NaN;578;Ceylan et al. (2021);Experiment 1;Orientation;0
2;38;88;2;-1;-1.99134948096886;1.69955760827725;1.69955760827725;3;1;1;0;1;NaN;578;Ceylan et al. (2021);Experiment 1;Orientation;0
2;38;-28;22;-9;-9.99134948096886;1.16629762955927;1.16629762955927;31;1;1;0;1;NaN;578;Ceylan et al. (2021);Experiment 1;Orientation;0
2;38;52;151;-8;-8.99134948096886;0.708031424754154;0.708031424754154;159;1;1;0;1;NaN;578;Ceylan et al. (2021);Experiment 1;Orientation;0
2;38;-30;25;16;15.0086505190311;2.53277668349619;2.53277668349619;9;1;1;0;1;NaN;578;Ceylan et al. (2021);Experiment 1;Orientation;0
2;38;-36;20;-25;-25.9913494809689;0.966327514772274;0.966327514772274;45;1;1;0;1;NaN;578;Ceylan et al. (2021);Experiment 1;Orientation;0
2;38;86;149;10;9.00865051903114;1.38306383813688;1.38306383813688;139;1;1;0;1;NaN;578;Ceylan et al. (2021);Experiment 1;Orientation;0
2;38;-56;4;-11;-11.9913494809689;1.12462405759652;1.12462405759652;15;1;1;0;1;NaN;578;Ceylan et al. (2021);Experiment 1;Orientation;0
2;38;77;143;25;24.0086505190311;0.691353362464724;0.691353362464724;118;1;1;0;1;NaN;578;Ceylan et al. (2021);Experiment 1;Orientation;0
2;38;-23;144;3;2.00865051903114;0.883009652319743;0.883009652319743;141;1;1;0;1;NaN;578;Ceylan et al. (2021);Experiment 1;Orientation;0
2;38;-22;143;-20;-20.9913494809689;1.08299878497201;1.08299878497201;163;1;1;0;1;NaN;578;Ceylan et al. (2021);Experiment 1;Orientation;0
2;38;14;154;5;4.00865051903114;1.23287071626692;1.23287071626692;149;1;1;0;1;NaN;578;Ceylan et al. (2021);Experiment 1;Orientation;0
2;38;-35;7;3;2.00865051903114;1.11634434407097;1.11634434407097;4;1;1;0;1;NaN;578;Ceylan et al. (2021);Experiment 1;Orientation;0
2;38;44;18;58;NaN;1.97459002165851;NaN;140;1;1;1;1;NaN;578;Ceylan et al. (2021);Experiment 1;Orientation;0
2;38;55;93;8;NaN;1.19967730006829;NaN;85;1;1;1;1;NaN;578;Ceylan et al. (2021);Experiment 1;Orientation;0
2;38;-62;35;68;NaN;1.68289916759386;NaN;147;1;1;1;1;NaN;578;Ceylan et al. (2021);Experiment 1;Orientation;0
2;38;50;88;-9;NaN;1.39960726603022;NaN;97;1;1;1;1;NaN;578;Ceylan et al. (2021);Experiment 1;Orientation;0
2;38;-30;115;-12;-12.9913494809689;1.36628827156164;1.36628827156164;127;1;1;0;1;NaN;578;Ceylan et al. (2021);Experiment 1;Orientation;0
2;38;-1;124;-4;-4.99134948096886;1.13295599477715;1.13295599477715;128;1;1;0;1;NaN;578;Ceylan et al. (2021);Experiment 1;Orientation;0
2;38;59;39;-30;-30.9913494809689;1.38293010935377;1.38293010935377;69;1;1;0;1;NaN;578;Ceylan et al. (2021);Experiment 1;Orientation;0
2;38;30;61;22;21.0086505190311;0.999677601936128;0.999677601936128;39;1;1;0;1;NaN;578;Ceylan et al. (2021);Experiment 1;Orientation;0
2;38;25;24;10;9.00865051903114;1.31627672500326;1.31627672500326;14;1;1;0;1;NaN;578;Ceylan et al. (2021);Experiment 1;Orientation;0
2;38;-67;82;1;0.00865051903114189;1.79124665111885;1.79124665111885;81;1;1;0;1;NaN;578;Ceylan et al. (2021);Experiment 1;Orientation;0
2;38;-6;77;-10;-10.9913494809689;1.65797308821493;1.65797308821493;87;1;1;0;1;NaN;578;Ceylan et al. (2021);Experiment 1;Orientation;0
2;38;57;31;1;0.00865051903114189;0.949658508608991;0.949658508608991;30;1;1;0;1;NaN;578;Ceylan et al. (2021);Experiment 1;Orientation;0
2;38;-71;111;10;9.00865051903114;1.46625068864159;1.46625068864159;101;1;1;0;1;NaN;578;Ceylan et al. (2021);Experiment 1;Orientation;0
2;38;-78;168;-11;-11.9913494809689;1.65793022255457;1.65793022255457;179;1;1;0;1;NaN;578;Ceylan et al. (2021);Experiment 1;Orientation;0
2;38;-2;174;-7;-7.99134948096886;0.999652848528058;0.999652848528058;1;1;1;0;1;NaN;578;Ceylan et al. (2021);Experiment 1;Orientation;0
2;38;53;130;2;1.00865051903114;1.69128966771314;1.69128966771314;128;1;1;0;1;NaN;578;Ceylan et al. (2021);Experiment 1;Orientation;0
2;38;41;82;-5;-5.99134948096886;1.44959043673225;1.44959043673225;87;1;1;0;1;NaN;578;Ceylan et al. (2021);Experiment 1;Orientation;0
2;38;-35;141;19;18.0086505190311;1.29970129880166;1.29970129880166;122;1;1;0;1;NaN;578;Ceylan et al. (2021);Experiment 1;Orientation;0
2;38;74;45;-3;-3.99134948096886;0.666383511812455;0.666383511812455;48;1;1;0;1;NaN;578;Ceylan et al. (2021);Experiment 1;Orientation;0
2;38;20;47;19;18.0086505190311;1.03301893484604;1.03301893484604;28;1;1;0;1;NaN;578;Ceylan et al. (2021);Experiment 1;Orientation;0
2;38;14;4;-10;-10.9913494809689;1.19132121322036;1.19132121322036;14;1;1;0;1;NaN;578;Ceylan et al. (2021);Experiment 1;Orientation;0
2;38;44;156;6;5.00865051903114;0.908048631394195;0.908048631394195;150;1;1;0;1;NaN;578;Ceylan et al. (2021);Experiment 1;Orientation;0
2;38;38;125;13;12.0086505190311;1.47460103994308;1.47460103994308;112;1;1;0;1;NaN;578;Ceylan et al. (2021);Experiment 1;Orientation;0
2;38;-32;35;71;NaN;3.69939188118224;NaN;144;1;1;1;1;NaN;578;Ceylan et al. (2021);Experiment 1;Orientation;0
2;38;77;46;-21;NaN;0.866367512659053;NaN;67;1;1;1;1;NaN;578;Ceylan et al. (2021);Experiment 1;Orientation;0
2;38;85;152;-10;-10.9913494809689;4.4742635483417;4.4742635483417;162;1;1;0;1;NaN;578;Ceylan et al. (2021);Experiment 1;Orientation;0
2;38;25;158;21;20.0086505190311;1.67462458587033;1.67462458587033;137;1;1;0;1;NaN;578;Ceylan et al. (2021);Experiment 1;Orientation;0
2;38;-41;175;-3;-3.99134948096886;1.69958538039282;1.69958538039282;178;1;1;0;1;NaN;578;Ceylan et al. (2021);Experiment 1;Orientation;0
2;38;17;111;-50;NaN;0.766347740118363;NaN;161;1;1;1;1;NaN;578;Ceylan et al. (2021);Experiment 1;Orientation;0
2;38;46;116;1;NaN;0.857995728525566;NaN;115;1;1;1;1;NaN;578;Ceylan et al. (2021);Experiment 1;Orientation;0
2;38;-25;129;-11;-11.9913494809689;1.54956704174037;1.54956704174037;140;1;1;0;1;NaN;578;Ceylan et al. (2021);Experiment 1;Orientation;0
2;38;-37;95;-82;NaN;1.76623363293766;NaN;177;1;1;1;1;NaN;578;Ceylan et al. (2021);Experiment 1;Orientation;0
2;38;-69;41;-25;NaN;0.749684771370084;NaN;66;1;1;1;1;NaN;578;Ceylan et al. (2021);Experiment 1;Orientation;0
2;38;45;37;16;15.0086505190311;1.09964545269395;1.09964545269395;21;1;1;0;1;NaN;578;Ceylan et al. (2021);Experiment 1;Orientation;0
2;38;-49;58;-12;-12.9913494809689;1.06635815466507;1.06635815466507;70;1;1;0;1;NaN;578;Ceylan et al. (2021);Experiment 1;Orientation;0
2;38;83;164;-3;-3.99134948096886;0.741374568893661;0.741374568893661;167;1;1;0;1;NaN;578;Ceylan et al. (2021);Experiment 1;Orientation;0
2;38;47;80;-40;-40.9913494809689;0.866372644464718;0.866372644464718;120;1;1;0;1;NaN;578;Ceylan et al. (2021);Experiment 1;Orientation;0
2;38;72;62;14;13.0086505190311;1.18298987978051;1.18298987978051;48;1;1;0;1;NaN;578;Ceylan et al. (2021);Experiment 1;Orientation;0
2;38;-2;49;-1;-1.99134948096886;1.12466058396967;1.12466058396967;50;1;1;0;1;NaN;578;Ceylan et al. (2021);Experiment 1;Orientation;0
2;38;73;147;-10;-10.9913494809689;1.18295335340736;1.18295335340736;157;1;1;0;1;NaN;578;Ceylan et al. (2021);Experiment 1;Orientation;0
2;38;39;128;10;9.00865051903114;0.708023877985397;0.708023877985397;118;1;1;0;1;NaN;578;Ceylan et al. (2021);Experiment 1;Orientation;0
2;38;5;135;22;21.0086505190311;1.28295591931237;1.28295591931237;113;1;1;0;1;NaN;578;Ceylan et al. (2021);Experiment 1;Orientation;0
2;38;-10;34;-89;NaN;1.60798961564069;NaN;123;1;1;1;1;NaN;578;Ceylan et al. (2021);Experiment 1;Orientation;0
2;38;-43;145;-21;NaN;1.17461205822838;NaN;166;1;1;1;1;NaN;578;Ceylan et al. (2021);Experiment 1;Orientation;0
2;38;30;142;6;5.00865051903114;1.08301961405959;1.08301961405959;136;1;1;0;1;NaN;578;Ceylan et al. (2021);Experiment 1;Orientation;0
2;38;-50;12;6;5.00865051903114;0.816351136167214;0.816351136167214;6;1;1;0;1;NaN;578;Ceylan et al. (2021);Experiment 1;Orientation;0
2;38;-63;47;-22;-22.9913494809689;1.12462858566141;1.12462858566141;69;1;1;0;1;NaN;578;Ceylan et al. (2021);Experiment 1;Orientation;0
2;38;43;25;-1;-1.99134948096886;0.749727637030446;0.749727637030446;26;1;1;0;1;NaN;578;Ceylan et al. (2021);Experiment 1;Orientation;0
2;38;2;32;8;7.00865051903114;1.30793754292245;1.30793754292245;24;1;1;0;1;NaN;578;Ceylan et al. (2021);Experiment 1;Orientation;0
2;38;74;135;5;4.00865051903114;1.09966507429635;1.09966507429635;130;1;1;0;1;NaN;578;Ceylan et al. (2021);Experiment 1;Orientation;0
2;38;-45;166;-9;-9.99134948096886;1.50798614412633;1.50798614412633;175;1;1;0;1;NaN;578;Ceylan et al. (2021);Experiment 1;Orientation;0
2;38;-47;51;9;8.00865051903114;1.11637905921816;1.11637905921816;42;1;1;0;1;NaN;578;Ceylan et al. (2021);Experiment 1;Orientation;0
2;38;10;38;6;5.00865051903114;1.43293712785089;1.43293712785089;32;1;1;0;1;NaN;578;Ceylan et al. (2021);Experiment 1;Orientation;0
2;38;-46;35;-43;-43.9913494809689;0.658042820377887;0.658042820377887;78;1;1;0;1;NaN;578;Ceylan et al. (2021);Experiment 1;Orientation;0
2;38;-74;140;-12;-12.9913494809689;0.63310285494299;0.63310285494299;152;1;1;0;1;NaN;578;Ceylan et al. (2021);Experiment 1;Orientation;0
2;38;-76;44;-4;-4.99134948096886;0.966345023283793;0.966345023283793;48;1;1;0;1;NaN;578;Ceylan et al. (2021);Experiment 1;Orientation;0
2;38;19;28;-1;-1.99134948096886;0.73304232983719;0.73304232983719;29;1;1;0;1;NaN;578;Ceylan et al. (2021);Experiment 1;Orientation;0
2;38;-4;48;15;14.0086505190311;1.04969216720565;1.04969216720565;33;1;1;0;1;NaN;578;Ceylan et al. (2021);Experiment 1;Orientation;0
2;38;48;164;-1;-1.99134948096886;0.666398605357244;0.666398605357244;165;1;1;0;1;NaN;578;Ceylan et al. (2021);Experiment 1;Orientation;0
2;38;-37;10;-12;-12.9913494809689;0.724676281253778;0.724676281253778;22;1;1;0;1;NaN;578;Ceylan et al. (2021);Experiment 1;Orientation;0
2;38;1;23;2;1.00865051903114;1.3995843238481;1.3995843238481;21;1;1;0;1;NaN;578;Ceylan et al. (2021);Experiment 1;Orientation;0
2;38;-70;101;10;9.00865051903114;0.999677601939766;0.999677601939766;91;1;1;0;1;NaN;578;Ceylan et al. (2021);Experiment 1;Orientation;0
2;38;-78;159;-10;-10.9913494809689;1.02467975276886;1.02467975276886;169;1;1;0;1;NaN;578;Ceylan et al. (2021);Experiment 1;Orientation;0
2;38;79;108;18;17.0086505190311;2.49948998920809;2.49948998920809;90;1;1;0;1;NaN;578;Ceylan et al. (2021);Experiment 1;Orientation;0
2;38;27;81;18;17.0086505190311;1.4413185718513;1.4413185718513;63;1;1;0;1;NaN;578;Ceylan et al. (2021);Experiment 1;Orientation;0
2;38;-56;124;5;4.00865051903114;0.799738277979486;0.799738277979486;119;1;1;0;1;NaN;578;Ceylan et al. (2021);Experiment 1;Orientation;0
2;38;56;66;3;2.00865051903114;1.23296369248419;1.23296369248419;63;1;1;0;1;NaN;578;Ceylan et al. (2021);Experiment 1;Orientation;0
2;38;13;47;-3;-3.99134948096886;1.07465145237802;1.07465145237802;50;1;1;0;1;NaN;578;Ceylan et al. (2021);Experiment 1;Orientation;0
2;38;61;155;-14;-14.9913494809689;2.49113510984171;2.49113510984171;169;1;1;0;1;NaN;578;Ceylan et al. (2021);Experiment 1;Orientation;0
2;38;81;90;2;1.00865051903114;1.14963707577772;1.14963707577772;88;1;1;0;1;NaN;578;Ceylan et al. (2021);Experiment 1;Orientation;0
2;38;28;54;-6;-6.99134948096886;1.37462171809602;1.37462171809602;60;1;1;0;1;NaN;578;Ceylan et al. (2021);Experiment 1;Orientation;0
2;38;41;23;4;3.00865051903114;1.2162729516167;1.2162729516167;19;1;1;0;1;NaN;578;Ceylan et al. (2021);Experiment 1;Orientation;0
2;38;-4;33;10;9.00865051903114;1.02470269495097;1.02470269495097;23;1;1;0;1;NaN;578;Ceylan et al. (2021);Experiment 1;Orientation;0
2;38;-21;40;-4;-4.99134948096886;0.816389171890478;0.816389171890478;44;1;1;0;1;NaN;578;Ceylan et al. (2021);Experiment 1;Orientation;0
2;38;81;156;13;12.0086505190311;1.15797172979728;1.15797172979728;143;1;1;0;1;NaN;578;Ceylan et al. (2021);Experiment 1;Orientation;0
2;38;13;143;13;12.0086505190311;0.533055008414522;0.533055008414522;130;1;1;0;1;NaN;578;Ceylan et al. (2021);Experiment 1;Orientation;0
2;38;-18;144;-4;-4.99134948096886;0.907979502968374;0.907979502968374;148;1;1;0;1;NaN;578;Ceylan et al. (2021);Experiment 1;Orientation;0
2;38;-55;33;10;9.00865051903114;0.858050669023214;0.858050669023214;23;1;1;0;1;NaN;578;Ceylan et al. (2021);Experiment 1;Orientation;0
2;38;-53;77;1;0.00865051903114189;0.908049235134968;0.908049235134968;76;1;1;0;1;NaN;578;Ceylan et al. (2021);Experiment 1;Orientation;0
2;38;53;41;18;17.0086505190311;0.758021236611967;0.758021236611967;23;1;1;0;1;NaN;578;Ceylan et al. (2021);Experiment 1;Orientation;0
2;38;-59;72;-10;-10.9913494809689;1.1580465937659;1.1580465937659;82;1;1;0;1;NaN;578;Ceylan et al. (2021);Experiment 1;Orientation;0
2;38;-29;129;18;17.0086505190311;0.916331967368023;0.916331967368023;111;1;1;0;1;NaN;578;Ceylan et al. (2021);Experiment 1;Orientation;0
2;38;-48;159;0;-0.991349480968858;0.616449546065269;0.616449546065269;159;1;1;0;1;NaN;578;Ceylan et al. (2021);Experiment 1;Orientation;0
2;38;-41;16;-4;-4.99134948096886;1.09963518908626;1.09963518908626;20;1;1;0;1;NaN;578;Ceylan et al. (2021);Experiment 1;Orientation;0
2;38;-27;58;11;10.0086505190311;0.666410982063098;0.666410982063098;47;1;1;0;1;NaN;578;Ceylan et al. (2021);Experiment 1;Orientation;0
2;38;36;36;25;24.0086505190311;1.56625838634864;1.56625838634864;11;1;1;0;1;NaN;578;Ceylan et al. (2021);Experiment 1;Orientation;0
2;38;62;154;25;24.0086505190311;1.5330012754057;1.5330012754057;129;1;1;0;1;NaN;578;Ceylan et al. (2021);Experiment 1;Orientation;0
2;38;75;53;-1;-1.99134948096886;0.849671338117332;0.849671338117332;54;1;1;0;1;NaN;578;Ceylan et al. (2021);Experiment 1;Orientation;0
2;38;33;47;26;25.0086505190311;0.766383662747103;0.766383662747103;21;1;1;0;1;NaN;578;Ceylan et al. (2021);Experiment 1;Orientation;0
2;38;-83;104;0;-0.991349480968858;0.741376078243775;0.741376078243775;104;1;1;0;1;NaN;578;Ceylan et al. (2021);Experiment 1;Orientation;0
2;38;-44;154;6;5.00865051903114;0.824670696645626;0.824670696645626;148;1;1;0;1;NaN;578;Ceylan et al. (2021);Experiment 1;Orientation;0
2;38;-49;10;-7;-7.99134948096886;1.30801089753732;1.30801089753732;17;1;1;0;1;NaN;578;Ceylan et al. (2021);Experiment 1;Orientation;0
2;38;-85;121;19;18.0086505190311;0.949660017962742;0.949660017962742;102;1;1;0;1;NaN;578;Ceylan et al. (2021);Experiment 1;Orientation;0
2;38;-41;141;-2;-2.99134948096886;0.908023576113919;0.908023576113919;143;1;1;0;1;NaN;578;Ceylan et al. (2021);Experiment 1;Orientation;0
2;38;-4;114;-33;-33.9913494809689;1.8912543488259;1.8912543488259;147;1;1;0;1;NaN;578;Ceylan et al. (2021);Experiment 1;Orientation;0
2;38;-32;0;1;0.00865051903114189;1.89956817375787;1.89956817375787;179;1;1;0;1;NaN;578;Ceylan et al. (2021);Experiment 1;Orientation;0
2;38;-5;5;1;0.00865051903114189;1.08297252220655;1.08297252220655;4;1;1;0;1;NaN;578;Ceylan et al. (2021);Experiment 1;Orientation;0
2;38;-64;76;8;7.00865051903114;0.957972937281738;0.957972937281738;68;1;1;0;1;NaN;578;Ceylan et al. (2021);Experiment 1;Orientation;0
2;38;-71;155;16;15.0086505190311;0.649509535345715;0.649509535345715;139;1;1;0;1;NaN;578;Ceylan et al. (2021);Experiment 1;Orientation;0
2;38;85;54;0;-0.991349480968858;0.633074479083007;0.633074479083007;54;1;1;0;1;NaN;578;Ceylan et al. (2021);Experiment 1;Orientation;0
2;38;-89;143;0;-0.991349480968858;0.991348079722229;0.991348079722229;143;1;1;0;1;NaN;578;Ceylan et al. (2021);Experiment 1;Orientation;0
2;38;65;99;21;20.0086505190311;0.799801067114458;0.799801067114458;78;1;1;0;1;NaN;578;Ceylan et al. (2021);Experiment 1;Orientation;0
2;38;-61;160;21;20.0086505190311;0.69134581569233;0.69134581569233;139;1;1;0;1;NaN;578;Ceylan et al. (2021);Experiment 1;Orientation;0
2;38;73;58;-8;-8.99134948096886;0.599756390227412;0.599756390227412;66;1;1;0;1;NaN;578;Ceylan et al. (2021);Experiment 1;Orientation;0
2;38;-9;52;-23;-23.9913494809689;0.983021274350904;0.983021274350904;75;1;1;0;1;NaN;578;Ceylan et al. (2021);Experiment 1;Orientation;0
2;38;51;31;7;6.00865051903114;0.858067271918117;0.858067271918117;24;1;1;0;1;NaN;578;Ceylan et al. (2021);Experiment 1;Orientation;0
2;38;66;91;-47;-47.9913494809689;1.18302338744616;1.18302338744616;138;1;1;0;1;NaN;578;Ceylan et al. (2021);Experiment 1;Orientation;0
2;38;80;44;-14;-14.9913494809689;1.19129615794009;1.19129615794009;58;1;1;0;1;NaN;578;Ceylan et al. (2021);Experiment 1;Orientation;0
2;38;34;31;7;6.00865051903114;0.849662885735597;0.849662885735597;24;1;1;0;1;NaN;578;Ceylan et al. (2021);Experiment 1;Orientation;0
2;38;-83;106;-1;-1.99134948096886;0.833005954402324;0.833005954402324;107;1;1;0;1;NaN;578;Ceylan et al. (2021);Experiment 1;Orientation;0
2;38;66;50;9;8.00865051903114;0.932996747342258;0.932996747342258;41;1;1;0;1;NaN;578;Ceylan et al. (2021);Experiment 1;Orientation;0
2;38;-59;108;8;7.00865051903114;1.42468337521859;1.42468337521859;100;1;1;0;1;NaN;578;Ceylan et al. (2021);Experiment 1;Orientation;0
2;38;-80;174;-6;-6.99134948096886;0.774671828658029;0.774671828658029;0;1;1;0;1;NaN;578;Ceylan et al. (2021);Experiment 1;Orientation;0
2;38;-63;81;18;17.0086505190311;0.749692620011047;0.749692620011047;63;1;1;0;1;NaN;578;Ceylan et al. (2021);Experiment 1;Orientation;0
2;38;60;176;-7;-7.99134948096886;0.758022142228583;0.758022142228583;3;1;1;0;1;NaN;578;Ceylan et al. (2021);Experiment 1;Orientation;0
2;38;57;132;6;5.00865051903114;1.4079760314562;1.4079760314562;126;1;1;0;1;NaN;578;Ceylan et al. (2021);Experiment 1;Orientation;0
2;38;-12;137;-1;-1.99134948096886;1.12459598360874;1.12459598360874;138;1;1;0;1;NaN;578;Ceylan et al. (2021);Experiment 1;Orientation;0
2;38;-23;153;-8;-8.99134948096886;0.958032405833364;0.958032405833364;161;1;1;0;1;NaN;578;Ceylan et al. (2021);Experiment 1;Orientation;0
2;38;48;145;32;31.0086505190311;0.824682469603431;0.824682469603431;113;1;1;0;1;NaN;578;Ceylan et al. (2021);Experiment 1;Orientation;0
2;38;28;78;-7;-7.99134948096886;1.27463937754146;1.27463937754146;85;1;1;0;1;NaN;578;Ceylan et al. (2021);Experiment 1;Orientation;0
2;38;-54;142;3;2.00865051903114;0.866375663172221;0.866375663172221;139;1;1;0;1;NaN;578;Ceylan et al. (2021);Experiment 1;Orientation;0
2;38;38;124;23;22.0086505190311;0.774683903491677;0.774683903491677;101;1;1;0;1;NaN;578;Ceylan et al. (2021);Experiment 1;Orientation;0
2;38;87;22;8;7.00865051903114;0.616388568152615;0.616388568152615;14;1;1;0;1;NaN;578;Ceylan et al. (2021);Experiment 1;Orientation;0
2;38;80;125;11;10.0086505190311;0.891339778278052;0.891339778278052;114;1;1;0;1;NaN;578;Ceylan et al. (2021);Experiment 1;Orientation;0
2;38;-8;128;6;5.00865051903114;0.899677752873686;0.899677752873686;122;1;1;0;1;NaN;578;Ceylan et al. (2021);Experiment 1;Orientation;0
2;38;44;80;2;1.00865051903114;0.85803587735063;0.85803587735063;78;1;1;0;1;NaN;578;Ceylan et al. (2021);Experiment 1;Orientation;0
2;38;1;87;10;9.00865051903114;1.42464232078419;1.42464232078419;77;1;1;0;1;NaN;578;Ceylan et al. (2021);Experiment 1;Orientation;0
2;38;-27;81;-23;-23.9913494809689;0.941344079936243;0.941344079936243;104;1;1;0;1;NaN;578;Ceylan et al. (2021);Experiment 1;Orientation;0
2;38;8;99;3;2.00865051903114;1.0413264204908;1.0413264204908;96;1;1;0;1;NaN;578;Ceylan et al. (2021);Experiment 1;Orientation;0
2;38;70;26;0;-0.991349480968858;0.891342796981917;0.891342796981917;26;1;1;0;1;NaN;578;Ceylan et al. (2021);Experiment 1;Orientation;0
2;38;-43;78;9;8.00865051903114;0.624691525728849;0.624691525728849;69;1;1;0;1;NaN;578;Ceylan et al. (2021);Experiment 1;Orientation;0
2;38;-21;91;1;0.00865051903114189;0.991374342487688;0.991374342487688;90;1;1;0;1;NaN;578;Ceylan et al. (2021);Experiment 1;Orientation;0
2;38;65;51;26;25.0086505190311;1.46631227029502;1.46631227029502;25;1;1;0;1;NaN;578;Ceylan et al. (2021);Experiment 1;Orientation;0
2;38;71;137;3;2.00865051903114;0.624676130315493;0.624676130315493;134;1;1;0;1;NaN;578;Ceylan et al. (2021);Experiment 1;Orientation;0
2;38;8;77;-49;-49.9913494809689;0.891341589500371;0.891341589500371;126;1;1;0;1;NaN;578;Ceylan et al. (2021);Experiment 1;Orientation;0
2;38;29;102;5;4.00865051903114;0.999621152092004;0.999621152092004;97;1;1;0;1;NaN;578;Ceylan et al. (2021);Experiment 1;Orientation;0
2;38;34;70;7;6.00865051903114;0.69974295697466;0.69974295697466;63;1;1;0;1;NaN;578;Ceylan et al. (2021);Experiment 1;Orientation;0
2;38;-15;71;-7;-7.99134948096886;0.791381285518582;0.791381285518582;78;1;1;0;1;NaN;578;Ceylan et al. (2021);Experiment 1;Orientation;0
2;38;-48;132;6;5.00865051903114;0.708053159454721;0.708053159454721;126;1;1;0;1;NaN;578;Ceylan et al. (2021);Experiment 1;Orientation;0
2;38;39;87;0;-0.991349480968858;0.766366757983633;0.766366757983633;87;1;1;0;1;NaN;578;Ceylan et al. (2021);Experiment 1;Orientation;0
2;38;37;65;15;14.0086505190311;0.799723788179108;0.799723788179108;50;1;1;0;1;NaN;578;Ceylan et al. (2021);Experiment 1;Orientation;0
2;38;-20;62;-8;-8.99134948096886;1.30793784479101;1.30793784479101;70;1;1;0;1;NaN;578;Ceylan et al. (2021);Experiment 1;Orientation;0
2;38;-44;117;3;2.00865051903114;0.72469197853934;0.72469197853934;114;1;1;0;1;NaN;578;Ceylan et al. (2021);Experiment 1;Orientation;0
2;38;30;82;-2;-2.99134948096886;0.891407397346484;0.891407397346484;84;1;1;0;1;NaN;578;Ceylan et al. (2021);Experiment 1;Orientation;0
2;38;-43;137;10;9.00865051903114;0.833090780110069;0.833090780110069;127;1;1;0;1;NaN;578;Ceylan et al. (2021);Experiment 1;Orientation;0
2;38;56;81;10;9.00865051903114;0.783015840672306;0.783015840672306;71;1;1;0;1;NaN;578;Ceylan et al. (2021);Experiment 1;Orientation;0
2;38;-42;136;23;22.0086505190311;0.807969088426034;0.807969088426034;113;1;1;0;1;NaN;578;Ceylan et al. (2021);Experiment 1;Orientation;0
2;38;-14;127;0;-0.991349480968858;0.699722429759277;0.699722429759277;127;1;1;0;1;NaN;578;Ceylan et al. (2021);Experiment 1;Orientation;0
2;38;23;125;21;20.0086505190311;0.933016067076096;0.933016067076096;104;1;1;0;1;NaN;578;Ceylan et al. (2021);Experiment 1;Orientation;0
2;38;-18;128;6;5.00865051903114;0.799692393611622;0.799692393611622;122;1;1;0;1;NaN;578;Ceylan et al. (2021);Experiment 1;Orientation;0
2;38;-69;9;-2;-2.99134948096886;1.08303953753421;1.08303953753421;11;1;1;0;1;NaN;578;Ceylan et al. (2021);Experiment 1;Orientation;0
2;38;26;143;-22;-22.9913494809689;0.982980521785066;0.982980521785066;165;1;1;0;1;NaN;578;Ceylan et al. (2021);Experiment 1;Orientation;0
2;38;-53;16;-22;-22.9913494809689;1.00799203060888;1.00799203060888;38;1;1;0;1;NaN;578;Ceylan et al. (2021);Experiment 1;Orientation;0
2;38;-55;104;11;10.0086505190311;0.758107873545669;0.758107873545669;93;1;1;0;1;NaN;578;Ceylan et al. (2021);Experiment 1;Orientation;0
2;38;78;26;11;10.0086505190311;0.907979804840579;0.907979804840579;15;1;1;0;1;NaN;578;Ceylan et al. (2021);Experiment 1;Orientation;0
2;38;-82;90;-7;-7.99134948096886;1.14134407993697;1.14134407993697;97;1;1;0;1;NaN;578;Ceylan et al. (2021);Experiment 1;Orientation;0
2;38;-55;157;5;4.00865051903114;0.791342646050907;0.791342646050907;152;1;1;0;1;NaN;578;Ceylan et al. (2021);Experiment 1;Orientation;0
2;38;-84;25;-31;-31.9913494809689;1.04969941210584;1.04969941210584;56;1;1;0;1;NaN;578;Ceylan et al. (2021);Experiment 1;Orientation;0
2;38;-68;125;1;0.00865051903114189;0.866324646998692;0.866324646998692;124;1;1;0;1;NaN;578;Ceylan et al. (2021);Experiment 1;Orientation;0
2;38;-68;22;10;9.00865051903114;0.691382040193275;0.691382040193275;12;1;1;0;1;NaN;578;Ceylan et al. (2021);Experiment 1;Orientation;0
2;38;-52;63;-1;-1.99134948096886;0.666400416583201;0.666400416583201;64;1;1;0;1;NaN;578;Ceylan et al. (2021);Experiment 1;Orientation;0
2;38;-11;91;16;15.0086505190311;1.44129653527852;1.44129653527852;75;1;1;0;1;NaN;578;Ceylan et al. (2021);Experiment 1;Orientation;0
2;38;-25;93;-7;-7.99134948096886;1.13298587999088;1.13298587999088;100;1;1;0;1;NaN;578;Ceylan et al. (2021);Experiment 1;Orientation;0
2;38;-13;118;5;4.00865051903114;0.96634924947648;0.96634924947648;113;1;1;0;1;NaN;578;Ceylan et al. (2021);Experiment 1;Orientation;0
2;38;-55;158;-10;-10.9913494809689;0.799678809420584;0.799678809420584;168;1;1;0;1;NaN;578;Ceylan et al. (2021);Experiment 1;Orientation;0
2;38;50;139;21;20.0086505190311;0.974650697698962;0.974650697698962;118;1;1;0;1;NaN;578;Ceylan et al. (2021);Experiment 1;Orientation;0
2;38;67;51;0;-0.991349480968858;1.124621944502;1.124621944502;51;1;1;0;1;NaN;578;Ceylan et al. (2021);Experiment 1;Orientation;0
2;38;77;158;4;3.00865051903114;0.924657867130009;0.924657867130009;154;1;1;0;1;NaN;578;Ceylan et al. (2021);Experiment 1;Orientation;0
2;38;-39;16;3;2.00865051903114;0.966304270717956;0.966304270717956;13;1;1;0;1;NaN;578;Ceylan et al. (2021);Experiment 1;Orientation;0
2;38;71;129;7;6.00865051903114;1.24963118929372;1.24963118929372;122;1;1;0;1;NaN;578;Ceylan et al. (2021);Experiment 1;Orientation;0
2;38;62;22;-38;-38.9913494809689;0.699683488419396;0.699683488419396;60;1;1;0;1;NaN;578;Ceylan et al. (2021);Experiment 1;Orientation;0
2;38;-17;90;13;12.0086505190311;1.10797618238939;1.10797618238939;77;1;1;0;1;NaN;578;Ceylan et al. (2021);Experiment 1;Orientation;0
2;38;NaN;139;1;0.00865051903114189;0.791337514245242;0.791337514245242;138;2;2;0;1;NaN;578;Ceylan et al. (2021);Experiment 1;Orientation;1
2;38;76;65;3;2.00865051903114;0.582997728419286;0.582997728419286;62;2;2;0;2;NaN;578;Ceylan et al. (2021);Experiment 1;Orientation;1
2;38;-82;144;0;-0.991349480968858;0.624682167734136;0.624682167734136;144;2;2;0;2;NaN;578;Ceylan et al. (2021);Experiment 1;Orientation;1
2;38;65;67;-12;-12.9913494809689;0.624699374373449;0.624699374373449;79;2;2;0;2;NaN;578;Ceylan et al. (2021);Experiment 1;Orientation;1
2;38;4;92;17;16.0086505190311;0.741371852054726;0.741371852054726;75;2;2;0;2;NaN;578;Ceylan et al. (2021);Experiment 1;Orientation;1
2;38;15;78;18;17.0086505190311;0.699685601517558;0.699685601517558;60;2;2;0;2;NaN;578;Ceylan et al. (2021);Experiment 1;Orientation;1
2;38;-74;135;1;0.00865051903114189;0.916378455476661;0.916378455476661;134;2;2;0;2;NaN;578;Ceylan et al. (2021);Experiment 1;Orientation;1
2;38;-70;14;-10;-10.9913494809689;0.983023085573222;0.983023085573222;24;2;2;0;2;NaN;578;Ceylan et al. (2021);Experiment 1;Orientation;1
2;38;56;149;1;0.00865051903114189;1.95783407669296;1.95783407669296;148;2;2;0;2;NaN;578;Ceylan et al. (2021);Experiment 1;Orientation;1
2;38;-3;1;30;29.0086505190311;1.1413250620717;1.1413250620717;151;2;2;0;2;NaN;578;Ceylan et al. (2021);Experiment 1;Orientation;1
2;38;-42;40;27;26.0086505190311;1.00800802976664;1.00800802976664;13;2;2;0;2;NaN;578;Ceylan et al. (2021);Experiment 1;Orientation;1
2;38;-70;90;7;6.00865051903114;0.733101194655319;0.733101194655319;83;2;2;0;2;NaN;578;Ceylan et al. (2021);Experiment 1;Orientation;1
2;38;-60;171;28;27.0086505190311;0.941316911557806;0.941316911557806;143;2;2;0;2;NaN;578;Ceylan et al. (2021);Experiment 1;Orientation;1
2;38;23;110;-10;-10.9913494809689;0.666413698898396;0.666413698898396;120;2;2;0;2;NaN;578;Ceylan et al. (2021);Experiment 1;Orientation;1
2;38;31;85;-4;-4.99134948096886;1.45792478887961;1.45792478887961;89;2;2;0;2;NaN;578;Ceylan et al. (2021);Experiment 1;Orientation;1
2;38;-62;162;11;10.0086505190311;0.749625000946253;0.749625000946253;151;2;2;0;2;NaN;578;Ceylan et al. (2021);Experiment 1;Orientation;1
2;38;-57;43;15;14.0086505190311;0.983024293054768;0.983024293054768;28;2;2;0;2;NaN;578;Ceylan et al. (2021);Experiment 1;Orientation;1
2;38;26;3;1;0.00865051903114189;0.549735787542886;0.549735787542886;2;2;2;0;2;NaN;578;Ceylan et al. (2021);Experiment 1;Orientation;1
2;38;7;155;-20;-20.9913494809689;0.833035839616059;0.833035839616059;175;2;2;0;2;NaN;578;Ceylan et al. (2021);Experiment 1;Orientation;1
2;38;-9;26;22;21.0086505190311;1.27461854845387;1.27461854845387;4;2;2;0;2;NaN;578;Ceylan et al. (2021);Experiment 1;Orientation;1
2;38;-32;55;19;18.0086505190311;1.11637000309202;1.11637000309202;36;2;2;0;2;NaN;578;Ceylan et al. (2021);Experiment 1;Orientation;1
2;38;-83;141;22;21.0086505190311;0.758261223934824;0.758261223934824;119;2;2;0;2;NaN;578;Ceylan et al. (2021);Experiment 1;Orientation;1
2;38;-64;8;5;4.00865051903114;1.44129985585823;1.44129985585823;3;2;2;0;2;NaN;578;Ceylan et al. (2021);Experiment 1;Orientation;1
2;38;60;142;19;18.0086505190311;1.09131019493361;1.09131019493361;123;2;2;0;2;NaN;578;Ceylan et al. (2021);Experiment 1;Orientation;1
2;38;69;48;-6;-6.99134948096886;1.01630766676681;1.01630766676681;54;2;2;0;2;NaN;578;Ceylan et al. (2021);Experiment 1;Orientation;1
2;38;-5;42;-17;-17.9913494809689;1.13297440890165;1.13297440890165;59;2;2;0;2;NaN;578;Ceylan et al. (2021);Experiment 1;Orientation;1
2;38;46;7;-6;-6.99134948096886;0.68301719909141;0.68301719909141;13;2;2;0;2;NaN;578;Ceylan et al. (2021);Experiment 1;Orientation;1
2;38;-57;60;-10;-10.9913494809689;0.899728769047215;0.899728769047215;70;2;2;0;2;NaN;578;Ceylan et al. (2021);Experiment 1;Orientation;1
2;38;-24;92;-2;-2.99134948096886;0.983029122988228;0.983029122988228;94;2;2;0;2;NaN;578;Ceylan et al. (2021);Experiment 1;Orientation;1
2;38;-31;140;15;14.0086505190311;0.79137826681108;0.79137826681108;125;2;2;0;2;NaN;578;Ceylan et al. (2021);Experiment 1;Orientation;1
2;38;-72;20;3;2.00865051903114;0.649683111081686;0.649683111081686;17;2;2;0;2;NaN;578;Ceylan et al. (2021);Experiment 1;Orientation;1
2;38;-81;123;25;24.0086505190311;0.658028632449714;0.658028632449714;98;2;2;0;2;NaN;578;Ceylan et al. (2021);Experiment 1;Orientation;1
2;38;-13;125;14;13.0086505190311;0.724695902856183;0.724695902856183;111;2;2;0;2;NaN;578;Ceylan et al. (2021);Experiment 1;Orientation;1
2;38;-40;150;-1;-1.99134948096886;0.899675036038388;0.899675036038388;151;2;2;0;2;NaN;578;Ceylan et al. (2021);Experiment 1;Orientation;1
2;38;68;125;42;41.0086505190311;1.27460798297761;1.27460798297761;83;2;2;0;2;NaN;578;Ceylan et al. (2021);Experiment 1;Orientation;1
2;38;-58;146;5;4.00865051903114;0.933007312822156;0.933007312822156;141;2;2;0;2;NaN;578;Ceylan et al. (2021);Experiment 1;Orientation;1
2;38;86;49;-6;-6.99134948096886;0.741405359716737;0.741405359716737;55;2;2;0;2;NaN;578;Ceylan et al. (2021);Experiment 1;Orientation;1
2;38;6;52;3;2.00865051903114;0.874707902225055;0.874707902225055;49;2;2;0;2;NaN;578;Ceylan et al. (2021);Experiment 1;Orientation;1
2;38;-39;91;3;2.00865051903114;0.68304738617735;0.68304738617735;88;2;2;0;2;NaN;578;Ceylan et al. (2021);Experiment 1;Orientation;1
2;38;-71;171;12;11.0086505190311;0.741366720249061;0.741366720249061;159;2;2;0;2;NaN;578;Ceylan et al. (2021);Experiment 1;Orientation;1
2;38;21;136;-2;-2.99134948096886;0.716430377262441;0.716430377262441;138;2;2;0;2;NaN;578;Ceylan et al. (2021);Experiment 1;Orientation;1
2;38;1;140;3;2.00865051903114;0.558032405835547;0.558032405835547;137;2;2;0;2;NaN;578;Ceylan et al. (2021);Experiment 1;Orientation;1
2;38;-44;0;-1;-1.99134948096886;1.76621974688169;1.76621974688169;1;2;2;0;2;NaN;578;Ceylan et al. (2021);Experiment 1;Orientation;1
2;38;-58;59;0;-0.991349480968858;1.23300052072955;1.23300052072955;59;2;2;0;2;NaN;578;Ceylan et al. (2021);Experiment 1;Orientation;1
2;38;19;61;21;20.0086505190311;1.05804583908684;1.05804583908684;40;2;2;0;2;NaN;578;Ceylan et al. (2021);Experiment 1;Orientation;1
2;38;72;148;0;-0.991349480968858;1.33297350328576;1.33297350328576;148;2;2;0;2;NaN;578;Ceylan et al. (2021);Experiment 1;Orientation;1
2;38;87;61;0;-0.991349480968858;0.599708996505797;0.599708996505797;61;2;2;0;2;NaN;578;Ceylan et al. (2021);Experiment 1;Orientation;1
2;38;64;7;10;9.00865051903114;1.32467960183203;1.32467960183203;177;2;2;0;2;NaN;578;Ceylan et al. (2021);Experiment 1;Orientation;1
2;38;23;11;37;36.0086505190311;0.941397511072864;0.941397511072864;154;2;2;0;2;NaN;578;Ceylan et al. (2021);Experiment 1;Orientation;1
2;38;-20;163;-11;-11.9913494809689;0.933049272865901;0.933049272865901;174;2;2;0;2;NaN;578;Ceylan et al. (2021);Experiment 1;Orientation;1
2;38;-16;14;4;3.00865051903114;1.07471152467406;1.07471152467406;10;2;2;0;2;NaN;578;Ceylan et al. (2021);Experiment 1;Orientation;1
2;38;-8;15;-3;-3.99134948096886;0.841374417952466;0.841374417952466;18;2;2;0;2;NaN;578;Ceylan et al. (2021);Experiment 1;Orientation;1
2;38;14;15;11;10.0086505190311;2.09116710815579;2.09116710815579;4;2;2;0;2;NaN;578;Ceylan et al. (2021);Experiment 1;Orientation;1
2;38;82;116;14;13.0086505190311;0.966320571744291;0.966320571744291;102;2;2;0;2;NaN;578;Ceylan et al. (2021);Experiment 1;Orientation;1
2;38;55;49;2;1.00865051903114;0.724705864595308;0.724705864595308;47;2;2;0;2;NaN;578;Ceylan et al. (2021);Experiment 1;Orientation;1
2;38;27;20;0;-0.991349480968858;0.883022934638575;0.883022934638575;20;2;2;0;2;NaN;578;Ceylan et al. (2021);Experiment 1;Orientation;1
2;38;-54;70;-4;-4.99134948096886;1.02465590497013;1.02465590497013;74;2;2;0;2;NaN;578;Ceylan et al. (2021);Experiment 1;Orientation;1
2;38;0;63;-11;-11.9913494809689;0.899706430602237;0.899706430602237;74;2;2;0;2;NaN;578;Ceylan et al. (2021);Experiment 1;Orientation;1
2;38;7;72;5;4.00865051903114;0.949621378495067;0.949621378495067;67;2;2;0;2;NaN;578;Ceylan et al. (2021);Experiment 1;Orientation;1
2;38;-65;132;0;-0.991349480968858;0.824722618428495;0.824722618428495;132;2;2;0;2;NaN;578;Ceylan et al. (2021);Experiment 1;Orientation;1
2;38;-54;20;14;13.0086505190311;0.883070328360191;0.883070328360191;6;2;2;0;2;NaN;578;Ceylan et al. (2021);Experiment 1;Orientation;1
2;38;82;116;12;11.0086505190311;0.949681148918899;0.949681148918899;104;2;2;0;2;NaN;578;Ceylan et al. (2021);Experiment 1;Orientation;1
2;38;-26;126;-4;-4.99134948096886;1.10806100809714;1.10806100809714;130;2;2;0;2;NaN;578;Ceylan et al. (2021);Experiment 1;Orientation;1
2;38;-31;158;-3;-3.99134948096886;0.616403057952994;0.616403057952994;161;2;2;0;2;NaN;578;Ceylan et al. (2021);Experiment 1;Orientation;1
2;38;-11;164;-8;-8.99134948096886;1.49962613296157;1.49962613296157;172;2;2;0;2;NaN;578;Ceylan et al. (2021);Experiment 1;Orientation;1
2;38;-82;65;-9;-9.99134948096886;0.74974484366976;0.74974484366976;74;2;2;0;2;NaN;578;Ceylan et al. (2021);Experiment 1;Orientation;1
2;38;-10;81;-3;-3.99134948096886;1.09971759982727;1.09971759982727;84;2;2;0;2;NaN;578;Ceylan et al. (2021);Experiment 1;Orientation;1
2;38;-24;104;-4;-4.99134948096886;0.958029990866635;0.958029990866635;108;2;2;0;2;NaN;578;Ceylan et al. (2021);Experiment 1;Orientation;1
2;38;-7;98;-17;-17.9913494809689;0.749694733105571;0.749694733105571;115;2;2;0;2;NaN;578;Ceylan et al. (2021);Experiment 1;Orientation;1
2;38;-87;20;-2;-2.99134948096886;0.958051725567202;0.958051725567202;22;2;2;0;2;NaN;578;Ceylan et al. (2021);Experiment 1;Orientation;1
2;38;-65;38;-49;-49.9913494809689;0.541370342696609;0.541370342696609;87;2;2;0;2;NaN;578;Ceylan et al. (2021);Experiment 1;Orientation;1
2;38;81;174;-12;-12.9913494809689;0.741380002564256;0.741380002564256;6;2;2;0;2;NaN;578;Ceylan et al. (2021);Experiment 1;Orientation;1
2;38;-8;14;0;-0.991349480968858;1.22467190412499;1.22467190412499;14;2;2;0;2;NaN;578;Ceylan et al. (2021);Experiment 1;Orientation;1
2;38;-69;69;-14;-14.9913494809689;2.11624895288332;2.11624895288332;83;2;2;0;2;NaN;578;Ceylan et al. (2021);Experiment 1;Orientation;1
2;38;-65;143;-5;-5.99134948096886;0.907981314197968;0.907981314197968;148;2;2;0;2;NaN;578;Ceylan et al. (2021);Experiment 1;Orientation;1
2;38;84;52;-12;-12.9913494809689;0.98298504984632;0.98298504984632;64;2;2;0;2;NaN;578;Ceylan et al. (2021);Experiment 1;Orientation;1
2;38;-60;135;11;10.0086505190311;1.08299667187384;1.08299667187384;124;2;2;0;2;NaN;578;Ceylan et al. (2021);Experiment 1;Orientation;1
2;38;-69;33;20;19.0086505190311;0.683092666800803;0.683092666800803;13;2;2;0;2;NaN;578;Ceylan et al. (2021);Experiment 1;Orientation;1
2;38;-51;38;-26;-26.9913494809689;0.699768917871552;0.699768917871552;64;2;2;0;2;NaN;578;Ceylan et al. (2021);Experiment 1;Orientation;1
2;38;-73;126;-11;-11.9913494809689;0.716341023493442;0.716341023493442;137;2;2;0;2;NaN;578;Ceylan et al. (2021);Experiment 1;Orientation;1
2;38;33;124;20;19.0086505190311;0.641349060802895;0.641349060802895;104;2;2;0;2;NaN;578;Ceylan et al. (2021);Experiment 1;Orientation;1
2;38;-12;145;29;28.0086505190311;1.18298474797484;1.18298474797484;116;2;2;0;2;NaN;578;Ceylan et al. (2021);Experiment 1;Orientation;1
2;38;-18;139;5;4.00865051903114;3.54934607228279;3.54934607228279;134;2;2;0;2;NaN;578;Ceylan et al. (2021);Experiment 1;Orientation;1
2;38;-14;132;-16;-16.9913494809689;0.81632517527396;0.81632517527396;148;2;2;0;2;NaN;578;Ceylan et al. (2021);Experiment 1;Orientation;1
2;38;32;136;20;19.0086505190311;1.79128498871796;1.79128498871796;116;2;2;0;2;NaN;578;Ceylan et al. (2021);Experiment 1;Orientation;1
2;38;-72;1;-7;-7.99134948096886;0.624682469606341;0.624682469606341;8;2;2;0;2;NaN;578;Ceylan et al. (2021);Experiment 1;Orientation;1
2;38;-86;91;-3;-3.99134948096886;1.21636924841732;1.21636924841732;94;2;2;0;2;NaN;578;Ceylan et al. (2021);Experiment 1;Orientation;1
2;38;-50;147;3;2.00865051903114;1.45791965707758;1.45791965707758;144;2;2;0;2;NaN;578;Ceylan et al. (2021);Experiment 1;Orientation;1
2;38;58;81;-5;-5.99134948096886;1.1163926434092;1.1163926434092;86;2;2;0;2;NaN;578;Ceylan et al. (2021);Experiment 1;Orientation;1
2;38;47;50;11;10.0086505190311;0.966323892320361;0.966323892320361;39;2;2;0;2;NaN;578;Ceylan et al. (2021);Experiment 1;Orientation;1
2;38;51;158;-10;-10.9913494809689;0.858028028709668;0.858028028709668;168;2;2;0;2;NaN;578;Ceylan et al. (2021);Experiment 1;Orientation;1
2;38;-11;170;-9;-9.99134948096886;1.05798787988897;1.05798787988897;179;2;2;0;2;NaN;578;Ceylan et al. (2021);Experiment 1;Orientation;1
2;38;22;157;0;-0.991349480968858;0.958036330153845;0.958036330153845;157;2;2;0;2;NaN;578;Ceylan et al. (2021);Experiment 1;Orientation;1
2;38;6;5;34;33.0086505190311;1.03301229369026;1.03301229369026;151;2;2;0;2;NaN;578;Ceylan et al. (2021);Experiment 1;Orientation;1
2;38;-84;39;-16;-16.9913494809689;0.816339061333565;0.816339061333565;55;2;2;0;2;NaN;578;Ceylan et al. (2021);Experiment 1;Orientation;1
2;38;16;51;12;11.0086505190311;1.75793309032815;1.75793309032815;39;2;2;0;2;NaN;578;Ceylan et al. (2021);Experiment 1;Orientation;1
2;38;66;140;-13;-13.9913494809689;0.916313251374959;0.916313251374959;153;2;2;0;2;NaN;578;Ceylan et al. (2021);Experiment 1;Orientation;1
2;38;54;130;31;30.0086505190311;0.899706732474442;0.899706732474442;99;2;2;0;2;NaN;578;Ceylan et al. (2021);Experiment 1;Orientation;1
2;38;5;102;8;7.00865051903114;0.899776162768831;0.899776162768831;94;2;2;0;2;NaN;578;Ceylan et al. (2021);Experiment 1;Orientation;1
2;38;-25;84;-35;-35.9913494809689;0.891338268920663;0.891338268920663;119;2;2;0;2;NaN;578;Ceylan et al. (2021);Experiment 1;Orientation;1
2;38;71;54;6;5.00865051903114;1.33332910714307;1.33332910714307;48;2;2;0;2;NaN;578;Ceylan et al. (2021);Experiment 1;Orientation;1
2;38;88;132;-8;-8.99134948096886;1.0830283683099;1.0830283683099;140;2;2;0;2;NaN;578;Ceylan et al. (2021);Experiment 1;Orientation;1
2;38;60;80;0;-0.991349480968858;1.42463145343208;1.42463145343208;80;2;2;0;2;NaN;578;Ceylan et al. (2021);Experiment 1;Orientation;1
2;38;-7;71;-16;-16.9913494809689;0.674679828236549;0.674679828236549;87;2;2;0;2;NaN;578;Ceylan et al. (2021);Experiment 1;Orientation;1
2;38;63;20;-4;-4.99134948096886;1.36625325454588;1.36625325454588;24;2;2;0;2;NaN;578;Ceylan et al. (2021);Experiment 1;Orientation;1
2;38;12;17;5;4.00865051903114;0.949746654892806;0.949746654892806;12;2;2;0;2;NaN;578;Ceylan et al. (2021);Experiment 1;Orientation;1
2;38;-50;51;-11;-11.9913494809689;0.683013576639496;0.683013576639496;62;2;2;0;2;NaN;578;Ceylan et al. (2021);Experiment 1;Orientation;1
2;38;4;50;-8;-8.99134948096886;1.52458451251732;1.52458451251732;58;2;2;0;2;NaN;578;Ceylan et al. (2021);Experiment 1;Orientation;1
2;38;62;5;9;8.00865051903114;1.00800953912039;1.00800953912039;176;2;2;0;2;NaN;578;Ceylan et al. (2021);Experiment 1;Orientation;1
2;38;18;151;-7;-7.99134948096886;1.48299606813453;1.48299606813453;158;2;2;0;2;NaN;578;Ceylan et al. (2021);Experiment 1;Orientation;1
2;38;69;86;-3;-3.99134948096886;1.48291456300285;1.48291456300285;89;2;2;0;2;NaN;578;Ceylan et al. (2021);Experiment 1;Orientation;1
2;38;-87;166;-10;-10.9913494809689;1.33292761891789;1.33292761891789;176;2;2;0;2;NaN;578;Ceylan et al. (2021);Experiment 1;Orientation;1
2;38;75;103;2;1.00865051903114;1.11629996905685;1.11629996905685;101;2;2;0;2;NaN;578;Ceylan et al. (2021);Experiment 1;Orientation;1
2;38;56;34;-11;-11.9913494809689;1.57461205823347;1.57461205823347;45;2;2;0;2;NaN;578;Ceylan et al. (2021);Experiment 1;Orientation;1
2;38;-33;59;-19;-19.9913494809689;2.29950810145965;2.29950810145965;78;2;2;0;2;NaN;578;Ceylan et al. (2021);Experiment 1;Orientation;1
2;38;51;15;-12;-12.9913494809689;1.02487415759242;1.02487415759242;27;2;2;0;2;NaN;578;Ceylan et al. (2021);Experiment 1;Orientation;1
2;38;-29;73;17;16.0086505190311;0.941354947288346;0.941354947288346;56;2;2;0;2;NaN;578;Ceylan et al. (2021);Experiment 1;Orientation;1
2;38;-36;116;24;23.0086505190311;0.666371738851012;0.666371738851012;92;2;2;0;2;NaN;578;Ceylan et al. (2021);Experiment 1;Orientation;1
2;38;-66;152;-6;-6.99134948096886;1.79955745734333;1.79955745734333;158;2;2;0;2;NaN;578;Ceylan et al. (2021);Experiment 1;Orientation;1
2;38;-88;45;-21;-21.9913494809689;0.74967963956442;0.74967963956442;66;2;2;0;2;NaN;578;Ceylan et al. (2021);Experiment 1;Orientation;1
2;38;-33;113;14;13.0086505190311;0.58302519866993;0.58302519866993;99;2;2;0;2;NaN;578;Ceylan et al. (2021);Experiment 1;Orientation;1
2;38;-6;112;7;6.00865051903114;1.13296112657918;1.13296112657918;105;2;2;0;2;NaN;578;Ceylan et al. (2021);Experiment 1;Orientation;1
2;38;79;37;11;10.0086505190311;1.18303093421491;1.18303093421491;26;2;2;0;2;NaN;578;Ceylan et al. (2021);Experiment 1;Orientation;1
2;38;-80;115;9;8.00865051903114;0.599694506705418;0.599694506705418;106;2;2;0;2;NaN;578;Ceylan et al. (2021);Experiment 1;Orientation;1
2;38;-50;144;-12;-12.9913494809689;0.741376078243775;0.741376078243775;156;2;2;0;2;NaN;578;Ceylan et al. (2021);Experiment 1;Orientation;1
2;38;49;122;15;14.0086505190311;0.941356758510665;0.941356758510665;107;2;2;0;2;NaN;578;Ceylan et al. (2021);Experiment 1;Orientation;1
2;38;8;133;34;33.0086505190311;1.0746445093464;1.0746445093464;99;2;2;0;2;NaN;578;Ceylan et al. (2021);Experiment 1;Orientation;1
2;38;66;34;1;0.00865051903114189;0.916342532844283;0.916342532844283;33;2;2;0;2;NaN;578;Ceylan et al. (2021);Experiment 1;Orientation;1
2;38;-57;95;5;4.00865051903114;1.44125095277923;1.44125095277923;90;2;2;0;2;NaN;578;Ceylan et al. (2021);Experiment 1;Orientation;1
2;38;-71;146;-15;-15.9913494809689;0.80807142264166;0.80807142264166;161;2;2;0;2;NaN;578;Ceylan et al. (2021);Experiment 1;Orientation;1
2;38;-81;49;-13;-13.9913494809689;0.774704128838493;0.774704128838493;62;2;2;0;2;NaN;578;Ceylan et al. (2021);Experiment 1;Orientation;1
2;38;-84;128;-18;-18.9913494809689;0.683077573259652;0.683077573259652;146;2;2;0;2;NaN;578;Ceylan et al. (2021);Experiment 1;Orientation;1
2;38;-3;165;16;15.0086505190311;1.22465077316883;1.22465077316883;149;2;2;0;2;NaN;578;Ceylan et al. (2021);Experiment 1;Orientation;1
2;38;-18;163;-4;-4.99134948096886;1.62464292452569;1.62464292452569;167;2;2;0;2;NaN;578;Ceylan et al. (2021);Experiment 1;Orientation;1
2;38;-87;50;-24;-24.9913494809689;0.758048404986766;0.758048404986766;74;2;2;0;2;NaN;578;Ceylan et al. (2021);Experiment 1;Orientation;1
2;38;69;178;-7;-7.99134948096886;0.983007388291298;0.983007388291298;5;2;2;0;2;NaN;578;Ceylan et al. (2021);Experiment 1;Orientation;1
2;38;-26;39;8;7.00865051903114;1.28301538786764;1.28301538786764;31;2;2;0;2;NaN;578;Ceylan et al. (2021);Experiment 1;Orientation;1
2;38;21;5;-5;-5.99134948096886;0.541295176855783;0.541295176855783;10;2;2;0;2;NaN;578;Ceylan et al. (2021);Experiment 1;Orientation;1
2;38;-1;47;36;NaN;0.149767785853328;NaN;11;2;2;1;2;NaN;578;Ceylan et al. (2021);Experiment 1;Orientation;1
2;38;16;171;-4;NaN;0.866420943799312;NaN;175;2;2;1;2;NaN;578;Ceylan et al. (2021);Experiment 1;Orientation;1
2;38;38;145;8;7.00865051903114;0.73302059514026;0.73302059514026;137;2;2;0;2;NaN;578;Ceylan et al. (2021);Experiment 1;Orientation;1
2;38;-40;5;8;7.00865051903114;1.4996451508232;1.4996451508232;177;2;2;0;2;NaN;578;Ceylan et al. (2021);Experiment 1;Orientation;1
2;38;-51;3;-45;-45.9913494809689;0.516382077930757;0.516382077930757;48;2;2;0;2;NaN;578;Ceylan et al. (2021);Experiment 1;Orientation;1
2;38;-16;30;-34;-34.9913494809689;1.14129095066528;1.14129095066528;64;2;2;0;2;NaN;578;Ceylan et al. (2021);Experiment 1;Orientation;1
2;38;-53;153;36;35.0086505190311;0.808076856315893;0.808076856315893;117;2;2;0;2;NaN;578;Ceylan et al. (2021);Experiment 1;Orientation;1
