obs;block;trial;theta;resp;rt;cond;delta;error;study;experiment;stimulus
1;1;1;118;129.384653271428;1.41588333714276;2;NaN;11.3846532714282;Fritsche et al. (2020);Experiment 1;Orientation
1;1;2;165;162.915449035791;1.59952822857122;2;-47;-2.08455096420869;Fritsche et al. (2020);Experiment 1;Orientation
1;1;3;26;20.5783150134839;1.76620873142861;2;-41;-5.42168498651607;Fritsche et al. (2020);Experiment 1;Orientation
1;1;4;93;89.6821172133669;3.79955126857158;2;-67;-3.31788278663311;Fritsche et al. (2020);Experiment 1;Orientation
1;1;5;4;16.9222198242511;1.84952429714281;1;89;12.9222198242511;Fritsche et al. (2020);Experiment 1;Orientation
1;1;6;17;23.5018710558301;2.13292690285721;2;-13;6.50187105583008;Fritsche et al. (2020);Experiment 1;Orientation
1;1;7;115;123.114555918132;1.76621348571439;2;82;8.11455591813166;Fritsche et al. (2020);Experiment 1;Orientation
1;1;8;171;169.15715767242;1.89956827428568;2;-56;-1.8428423275798;Fritsche et al. (2020);Experiment 1;Orientation
1;1;9;166;139.076416332216;1.96618166857138;1;5;-26.9235836677843;Fritsche et al. (2020);Experiment 1;Orientation
1;1;10;136;159.412101152163;2.46622098285707;2;30;23.4121011521628;Fritsche et al. (2020);Experiment 1;Orientation
1;1;11;159;137.937486954907;1.83289965714266;1;-23;-21.0625130450927;Fritsche et al. (2020);Experiment 1;Orientation
1;1;12;109;106.558219866106;0.799499702857247;1;50;-2.44178013389394;Fritsche et al. (2020);Experiment 1;Orientation
1;1;13;173;21.5801679268359;2.44957110857149;2;-64;28.5801679268359;Fritsche et al. (2020);Experiment 1;Orientation
1;1;14;9;20.3177268319971;1.51618633142857;2;-16;11.3177268319971;Fritsche et al. (2020);Experiment 1;Orientation
1;1;15;12;18.6847959171837;2.13291702857146;1;-3;6.68479591718366;Fritsche et al. (2020);Experiment 1;Orientation
1;1;16;146;154.716303647375;2.53281901714286;2;46;8.71630364737513;Fritsche et al. (2020);Experiment 1;Orientation
1;1;17;93;97.938742319155;2.16620543999989;1;53;4.93874231915498;Fritsche et al. (2020);Experiment 1;Orientation
1;1;18;160;122.552037746547;2.61623003428576;1;-67;-37.4479622534529;Fritsche et al. (2020);Experiment 1;Orientation
1;1;19;95;110.084765223955;1.51620754285727;2;65;15.0847652239555;Fritsche et al. (2020);Experiment 1;Orientation
1;1;20;3;6.41944677038771;2.88281929142863;1;-88;3.41944677038771;Fritsche et al. (2020);Experiment 1;Orientation
1;1;21;29;20.9606920693786;1.2995653485716;1;-26;-8.0393079306214;Fritsche et al. (2020);Experiment 1;Orientation
1;1;22;11;9.01454344203107;1.78284251428568;1;18;-1.98545655796893;Fritsche et al. (2020);Experiment 1;Orientation
1;1;23;158;150.485439043827;2.09951195428562;2;33;-7.51456095617257;Fritsche et al. (2020);Experiment 1;Orientation
1;1;24;27;27.915608809904;1.26619611428578;1;-49;0.915608809903993;Fritsche et al. (2020);Experiment 1;Orientation
1;1;25;171;163.635802491613;1.99950665142865;1;36;-7.36419750838695;Fritsche et al. (2020);Experiment 1;Orientation
1;1;26;60;66.7438304628255;1.53288594285709;2;-69;6.74383046282553;Fritsche et al. (2020);Experiment 1;Orientation
1;1;27;54;59.0383916146642;1.11611757714286;1;6;5.03839161466423;Fritsche et al. (2020);Experiment 1;Orientation
1;1;28;165;135.747229622333;1.93285668571434;1;69;-29.252770377667;Fritsche et al. (2020);Experiment 1;Orientation
1;1;29;177;1.10878944940696;1.74953874285711;1;-12;4.10878944940697;Fritsche et al. (2020);Experiment 1;Orientation
1;1;30;57;70.414880958585;1.11628251428579;1;-60;13.414880958585;Fritsche et al. (2020);Experiment 1;Orientation
1;1;31;91;88.7576247888166;2.88287780571432;1;-34;-2.24237521118337;Fritsche et al. (2020);Experiment 1;Orientation
1;1;32;98;86.6682610155141;1.21620406857141;2;-7;-11.3317389844859;Fritsche et al. (2020);Experiment 1;Orientation
1;1;33;155;142.729624619132;1.86623963428565;1;-57;-12.2703753808682;Fritsche et al. (2020);Experiment 1;Orientation
1;1;34;54;53.3172207626567;0.882872685714347;2;-79;-0.682779237343262;Fritsche et al. (2020);Experiment 1;Orientation
1;1;35;69;70.0316705002798;1.29945087999999;2;-15;1.0316705002798;Fritsche et al. (2020);Experiment 1;Orientation
1;1;36;127;60.8758609343731;3.34953984000003;2;-58;-66.1241390656269;Fritsche et al. (2020);Experiment 1;Orientation
1;1;37;69;61.1360149408675;1.14953398857142;2;58;-7.86398505913246;Fritsche et al. (2020);Experiment 1;Orientation
1;1;38;151;64.2088413973598;1.16623542857155;1;-82;-86.7911586026402;Fritsche et al. (2020);Experiment 1;Orientation
1;1;39;10;33.1753305097934;1.14951606857153;1;-39;23.1753305097934;Fritsche et al. (2020);Experiment 1;Orientation
1;1;40;47;43.2040104794458;1.28283794285721;1;-37;-3.79598952055417;Fritsche et al. (2020);Experiment 1;Orientation
1;1;41;121;105.129232437461;1.41620150857148;1;-74;-15.8707675625388;Fritsche et al. (2020);Experiment 1;Orientation
1;1;42;14;48.4123949908467;1.61621138285727;1;-73;34.4123949908467;Fritsche et al. (2020);Experiment 1;Orientation
1;1;43;94;101.333943175274;1.81614701714284;1;-80;7.33394317527353;Fritsche et al. (2020);Experiment 1;Orientation
1;1;44;14;48.3511699653691;1.19953481142852;2;80;34.3511699653691;Fritsche et al. (2020);Experiment 1;Orientation
1;1;45;33;44.8116683639492;0.84949759999995;2;-19;11.8116683639492;Fritsche et al. (2020);Experiment 1;Orientation
1;1;46;56;45.8252870745285;0.782862628571593;1;-23;-10.1747129254715;Fritsche et al. (2020);Experiment 1;Orientation
1;1;47;60;60.1413388342811;1.64950418285707;2;-4;0.141338834281079;Fritsche et al. (2020);Experiment 1;Orientation
1;1;48;154;126.305189828576;2.24951734857154;2;86;-27.6948101714245;Fritsche et al. (2020);Experiment 1;Orientation
1;1;49;147;126.026173823717;1.79958418285696;2;7;-20.973826176283;Fritsche et al. (2020);Experiment 1;Orientation
1;1;50;103;116.808417234216;1.63286857142862;1;44;13.8084172342161;Fritsche et al. (2020);Experiment 1;Orientation
1;1;51;33;69.5709800571209;1.88286683428578;2;70;36.5709800571209;Fritsche et al. (2020);Experiment 1;Orientation
1;1;52;85;90.3179956426353;1.28288182857136;1;-52;5.3179956426353;Fritsche et al. (2020);Experiment 1;Orientation
1;1;53;170;136.858355002955;1.56618386285709;1;-85;-33.1416449970446;Fritsche et al. (2020);Experiment 1;Orientation
1;1;54;22;43.4940133500113;1.13286546285713;1;-32;21.4940133500113;Fritsche et al. (2020);Experiment 1;Orientation
1;1;55;93;90.754208434404;2.9163055542856;1;-71;-2.24579156559604;Fritsche et al. (2020);Experiment 1;Orientation
1;1;56;106;81.9796648390614;1.63287990857157;2;-13;-24.0203351609386;Fritsche et al. (2020);Experiment 1;Orientation
1;1;57;17;71.4201367674309;1.5162327771427;1;89;54.4201367674309;Fritsche et al. (2020);Experiment 1;Orientation
1;1;58;94;87.0192886131807;2.11619474285726;2;-77;-6.98071138681925;Fritsche et al. (2020);Experiment 1;Orientation
1;1;59;24;79.8321130493028;0.849517714285867;2;70;55.8321130493028;Fritsche et al. (2020);Experiment 1;Orientation
1;1;60;178;158.38192024841;1.11638930285721;2;26;-19.6180797515903;Fritsche et al. (2020);Experiment 1;Orientation
1;1;61;139;143.37910727465;1.63284479999993;2;39;4.37910727465021;Fritsche et al. (2020);Experiment 1;Orientation
1;1;62;58;48.0851915340741;0.832871131428647;1;81;-9.91480846592585;Fritsche et al. (2020);Experiment 1;Orientation
1;1;63;14;30.3584457880938;0.999496777142895;1;44;16.3584457880938;Fritsche et al. (2020);Experiment 1;Orientation
1;1;64;64;62.8235427737896;1.49951853714288;2;-50;-1.17645722621044;Fritsche et al. (2020);Experiment 1;Orientation
1;1;65;13;14.1144209614736;2.21622381714292;1;51;1.11442096147358;Fritsche et al. (2020);Experiment 1;Orientation
1;1;66;157;143.120738568949;1.61619346285715;2;36;-13.8792614310515;Fritsche et al. (2020);Experiment 1;Orientation
1;1;67;17;11.3965831806388;1.24951771428573;2;-40;-5.60341681936117;Fritsche et al. (2020);Experiment 1;Orientation
1;1;68;138;140.067557868244;1.58283483428568;1;59;2.06755786824363;Fritsche et al. (2020);Experiment 1;Orientation
1;1;69;170;162.749008356818;1.1162057142858;1;-32;-7.25099164318232;Fritsche et al. (2020);Experiment 1;Orientation
1;1;70;103;111.001540317559;2.08285988571424;2;67;8.00154031755869;Fritsche et al. (2020);Experiment 1;Orientation
1;1;71;8;11.1281990644881;1.51624082285707;2;-85;3.12819906448809;Fritsche et al. (2020);Experiment 1;Orientation
1;1;72;89;71.9723533261821;2.11622619428567;1;-81;-17.0276466738179;Fritsche et al. (2020);Experiment 1;Orientation
1;1;73;143;127.410108300181;2.49957449142858;2;-54;-15.5898916998186;Fritsche et al. (2020);Experiment 1;Orientation
1;1;74;121;114.483754771097;1.68284562285726;2;22;-6.51624522890273;Fritsche et al. (2020);Experiment 1;Orientation
1;1;75;156;148.859868345542;2.24952758857148;2;-35;-7.14013165445849;Fritsche et al. (2020);Experiment 1;Orientation
1;1;76;170;170.448823149388;0.999507017142832;2;-14;0.448823149387692;Fritsche et al. (2020);Experiment 1;Orientation
1;1;77;8;15.2322137589163;1.56620873142856;1;-18;7.23221375891629;Fritsche et al. (2020);Experiment 1;Orientation
1;1;78;3;13.1136103313325;1.26619903999995;2;5;10.1136103313325;Fritsche et al. (2020);Experiment 1;Orientation
1;1;79;145;6.83426080497628;0.017948525714246;1;38;41.8342608049763;Fritsche et al. (2020);Experiment 1;Orientation
1;1;80;160;146.791127493899;0.999562240000159;1;-15;-13.2088725061011;Fritsche et al. (2020);Experiment 1;Orientation
1;1;81;3;13.4839491828959;1.11627154285725;2;-23;10.4839491828959;Fritsche et al. (2020);Experiment 1;Orientation
1;1;82;77;76.3316718706994;1.49951341714291;2;-74;-0.668328129300647;Fritsche et al. (2020);Experiment 1;Orientation
1;2;1;89;80.1849846795075;1.58261723428564;1;-12;-8.81501532049246;Fritsche et al. (2020);Experiment 1;Orientation
1;2;2;68;61.9851337151824;1.43287515428574;2;21;-6.01486628481759;Fritsche et al. (2020);Experiment 1;Orientation
1;2;3;165;146.490060064334;1.13288374857143;1;83;-18.5099399356658;Fritsche et al. (2020);Experiment 1;Orientation
1;2;4;48;65.195192238272;2.2329131885715;2;-63;17.195192238272;Fritsche et al. (2020);Experiment 1;Orientation
1;2;5;46;57.1533318561957;1.73284278857136;2;2;11.1533318561957;Fritsche et al. (2020);Experiment 1;Orientation
1;2;6;111;120.296377583719;1.06615551999994;2;-65;9.29637758371928;Fritsche et al. (2020);Experiment 1;Orientation
1;2;7;167;153.69696058787;1.34954971428579;1;-56;-13.30303941213;Fritsche et al. (2020);Experiment 1;Orientation
1;2;8;102;110.941811461957;1.26619245714278;2;65;8.94181146195687;Fritsche et al. (2020);Experiment 1;Orientation
1;2;9;41;56.6556451230951;1.43287771428572;1;61;15.6556451230951;Fritsche et al. (2020);Experiment 1;Orientation
1;2;10;104;124.268792497315;1.49956278857144;1;-63;20.2687924973147;Fritsche et al. (2020);Experiment 1;Orientation
1;2;11;51;51.0287597890764;1.282842697143;1;53;0.0287597890764033;Fritsche et al. (2020);Experiment 1;Orientation
1;2;12;177;172.150580639313;2.3328610742858;2;54;-4.84941936068742;Fritsche et al. (2020);Experiment 1;Orientation
1;2;13;69;73.873152795971;0.916239359999963;1;-72;4.87315279597095;Fritsche et al. (2020);Experiment 1;Orientation
1;2;14;178;14.9088223380437;1.84957842285712;1;71;16.9088223380437;Fritsche et al. (2020);Experiment 1;Orientation
1;2;15;21;0.651924533642699;1.26612443428576;1;-23;-20.3480754663573;Fritsche et al. (2020);Experiment 1;Orientation
1;2;16;81;109.267445668689;0.999489828571541;2;-60;28.2674456686887;Fritsche et al. (2020);Experiment 1;Orientation
1;2;17;160;152.515803242097;1.8162472228571;1;-79;-7.48419675790313;Fritsche et al. (2020);Experiment 1;Orientation
1;2;18;154;166.360907643209;1.08287085714278;1;6;12.3609076432089;Fritsche et al. (2020);Experiment 1;Orientation
1;2;19;144;158.777661472704;0.832829440000069;1;10;14.7776614727038;Fritsche et al. (2020);Experiment 1;Orientation
1;2;20;87;90.9014057296432;1.6995964342857;2;57;3.90140572964316;Fritsche et al. (2020);Experiment 1;Orientation
1;2;21;145;150.846172770425;0.999550537142795;2;-58;5.84617277042528;Fritsche et al. (2020);Experiment 1;Orientation
1;2;22;21;38.5528474333745;0.899529508571504;2;-56;17.5528474333745;Fritsche et al. (2020);Experiment 1;Orientation
1;2;23;22;41.9695742854668;0.816196022857184;2;-1;19.9695742854668;Fritsche et al. (2020);Experiment 1;Orientation
1;2;24;92;80.9683473030875;1.49956498285724;1;-70;-11.0316526969125;Fritsche et al. (2020);Experiment 1;Orientation
1;2;25;75;65.2404105018887;1.2662868114287;1;17;-9.75958949811131;Fritsche et al. (2020);Experiment 1;Orientation
1;2;26;8;21.4186608762846;1.08285988571424;2;67;13.4186608762846;Fritsche et al. (2020);Experiment 1;Orientation
1;2;27;69;58.89748312468;1.13284132571425;2;-61;-10.10251687532;Fritsche et al. (2020);Experiment 1;Orientation
1;2;28;171;158.573312629513;1.14951241142853;2;78;-12.4266873704869;Fritsche et al. (2020);Experiment 1;Orientation
1;2;29;119;118.157036730707;0.782872868571303;2;52;-0.842963269292511;Fritsche et al. (2020);Experiment 1;Orientation
1;2;30;85;60.2126617873104;0.616161280000142;2;34;-24.7873382126896;Fritsche et al. (2020);Experiment 1;Orientation
1;2;31;118;118.976304751064;1.16616703999989;1;-33;0.976304751064063;Fritsche et al. (2020);Experiment 1;Orientation
1;2;32;19;61.1845147521153;1.48291145142866;2;-81;42.1845147521153;Fritsche et al. (2020);Experiment 1;Orientation
1;2;33;57;47.8984420940939;0.949554102857292;1;-38;-9.10155790590609;Fritsche et al. (2020);Experiment 1;Orientation
1;2;34;104;56.6830256911001;1.14950948571436;2;-47;-47.3169743088999;Fritsche et al. (2020);Experiment 1;Orientation
1;2;35;62;70.7196436367471;1.06616064000013;1;42;8.71964363674705;Fritsche et al. (2020);Experiment 1;Orientation
1;2;36;47;49.5499968426903;1.11616365714281;1;15;2.54999684269033;Fritsche et al. (2020);Experiment 1;Orientation
1;2;37;119;122.396681172097;1.46622793142842;2;-72;3.39668117209686;Fritsche et al. (2020);Experiment 1;Orientation
1;2;38;165;102.398251292552;0.932867291428693;1;-46;-62.601748707448;Fritsche et al. (2020);Experiment 1;Orientation
1;2;39;148;136.557068422827;1.53291410285715;2;17;-11.4429315771731;Fritsche et al. (2020);Experiment 1;Orientation
1;2;40;2;19.1432152337088;0.966168868571458;2;-34;17.1432152337088;Fritsche et al. (2020);Experiment 1;Orientation
1;2;41;155;153.657805220079;1.23285869714277;1;27;-1.3421947799205;Fritsche et al. (2020);Experiment 1;Orientation
1;2;42;179;7.19765916080856;1.78289334857141;1;-24;8.19765916080854;Fritsche et al. (2020);Experiment 1;Orientation
1;2;43;76;72.344363863812;1.09955474285721;2;-77;-3.65563613618795;Fritsche et al. (2020);Experiment 1;Orientation
1;2;44;6;6.31478289301086;0.99949860571428;2;70;0.314782893010857;Fritsche et al. (2020);Experiment 1;Orientation
1;2;45;128;145.281217822031;1.01618395428568;1;58;17.2812178220312;Fritsche et al. (2020);Experiment 1;Orientation
1;2;46;23;159.089225838528;0.782881279999856;2;-75;-43.9107741614716;Fritsche et al. (2020);Experiment 1;Orientation
1;2;47;174;163.291604587963;1.36621129142873;1;29;-10.7083954120371;Fritsche et al. (2020);Experiment 1;Orientation
1;2;48;151;158.817698301892;0.832837485714208;2;23;7.81769830189199;Fritsche et al. (2020);Experiment 1;Orientation
1;2;49;132;148.534941580041;1.09958070857147;1;19;16.5349415800412;Fritsche et al. (2020);Experiment 1;Orientation
1;2;50;124;117.438507669108;0.899534994285887;1;8;-6.56149233089188;Fritsche et al. (2020);Experiment 1;Orientation
1;2;51;58;59.9575574962162;1.11619620571423;1;66;1.95755749621623;Fritsche et al. (2020);Experiment 1;Orientation
1;2;52;127;117.70654443203;0.849528685714404;1;-69;-9.29345556797031;Fritsche et al. (2020);Experiment 1;Orientation
1;2;53;176;171.084150898765;0.866202697142853;2;-49;-4.91584910123487;Fritsche et al. (2020);Experiment 1;Orientation
1;2;54;57;67.5172400871282;1.38283922285723;2;-61;10.5172400871282;Fritsche et al. (2020);Experiment 1;Orientation
1;2;55;172;170.006615311386;0.799548342857179;1;65;-1.99338468861401;Fritsche et al. (2020);Experiment 1;Orientation
1;2;56;128;136.149575029125;0.632877348571355;1;44;8.14957502912466;Fritsche et al. (2020);Experiment 1;Orientation
1;2;57;171;170.936992434769;1.88289353142864;1;-43;-0.0630075652309756;Fritsche et al. (2020);Experiment 1;Orientation
1;2;58;5;21.8939859660131;0.949539474285757;2;-14;16.8939859660131;Fritsche et al. (2020);Experiment 1;Orientation
1;2;59;21;17.4892727744058;2.13284022857147;2;-16;-3.51072722559422;Fritsche et al. (2020);Experiment 1;Orientation
1;2;60;89;104.061457037339;1.18289225142848;1;-68;15.0614570373385;Fritsche et al. (2020);Experiment 1;Orientation
1;2;61;159;162.717676685201;1.73284388571437;2;-70;3.71767668520067;Fritsche et al. (2020);Experiment 1;Orientation
1;2;62;65;73.1019575079922;1.18287286857139;2;-86;8.10195750799224;Fritsche et al. (2020);Experiment 1;Orientation
1;2;63;148;140.41627098336;0.982838857142951;1;-83;-7.5837290166404;Fritsche et al. (2020);Experiment 1;Orientation
1;2;64;10;32.6927386787473;0.916186331428435;1;-42;22.6927386787473;Fritsche et al. (2020);Experiment 1;Orientation
1;2;65;121;124.641695979705;1.79956077714291;1;69;3.64169597970502;Fritsche et al. (2020);Experiment 1;Orientation
1;2;66;12;30.4354111055878;0.966150582856926;1;-71;18.4354111055878;Fritsche et al. (2020);Experiment 1;Orientation
1;2;67;174;177.835875110544;0.84952063999981;2;18;3.83587511054372;Fritsche et al. (2020);Experiment 1;Orientation
1;2;68;68;69.4579493407108;1.26622171428585;1;-74;1.45794934071083;Fritsche et al. (2020);Experiment 1;Orientation
1;2;69;23;43.2167714667118;1.14949668571444;2;45;20.2167714667118;Fritsche et al. (2020);Experiment 1;Orientation
1;2;70;68;75.0335983782478;1.68286171428576;2;-45;7.03359837824785;Fritsche et al. (2020);Experiment 1;Orientation
1;2;71;95;80.770172542648;1.26617014857152;2;-27;-14.229827457352;Fritsche et al. (2020);Experiment 1;Orientation
1;2;72;6;30.9971456065345;0.932755748571481;2;89;24.9971456065345;Fritsche et al. (2020);Experiment 1;Orientation
1;2;73;141;124.641134825133;1.23290770285712;1;45;-16.3588651748668;Fritsche et al. (2020);Experiment 1;Orientation
1;2;74;118;74.8194282378752;1.43284735999987;1;23;-43.1805717621248;Fritsche et al. (2020);Experiment 1;Orientation
1;2;75;14;33.6272699307625;0.73285997714288;1;-76;19.6272699307625;Fritsche et al. (2020);Experiment 1;Orientation
1;2;76;170;159.228420459692;0.782862994285779;1;24;-10.7715795403084;Fritsche et al. (2020);Experiment 1;Orientation
1;2;77;132;143.891307091603;0.932766720000018;2;38;11.8913070916027;Fritsche et al. (2020);Experiment 1;Orientation
1;2;78;123;124.490876797399;1.13287241142848;2;9;1.49087679739903;Fritsche et al. (2020);Experiment 1;Orientation
1;2;79;143;142.446747800503;1.64958793142841;2;-20;-0.553252199496683;Fritsche et al. (2020);Experiment 1;Orientation
1;2;80;67;71.899264431103;0.74952228571442;2;76;4.89926443110301;Fritsche et al. (2020);Experiment 1;Orientation
1;2;81;6;20.3179503201195;1.21616493714282;1;61;14.3179503201195;Fritsche et al. (2020);Experiment 1;Orientation
1;2;82;124;141.013571043679;0.666184045714317;2;62;17.0135710436794;Fritsche et al. (2020);Experiment 1;Orientation
1;3;1;66;48.7872018971773;1.84924233142851;2;58;-17.2127981028227;Fritsche et al. (2020);Experiment 1;Orientation
1;3;2;30;40.0295640867491;1.59952969142842;2;36;10.0295640867491;Fritsche et al. (2020);Experiment 1;Orientation
1;3;3;45;40.9611024522183;1.38284909714298;1;-15;-4.03889754778167;Fritsche et al. (2020);Experiment 1;Orientation
1;3;4;97;120.163130708094;1.56619227428564;1;-52;23.1631307080938;Fritsche et al. (2020);Experiment 1;Orientation
1;3;5;137;119.911605824911;1.48283757714285;1;-40;-17.0883941750892;Fritsche et al. (2020);Experiment 1;Orientation
1;3;6;27;42.429420139177;0.816202971428538;1;-70;15.429420139177;Fritsche et al. (2020);Experiment 1;Orientation
1;3;7;70;56.9763570404893;0.949571657142997;1;-43;-13.0236429595107;Fritsche et al. (2020);Experiment 1;Orientation
1;3;8;93;109.510847433869;0.982829714285799;1;-23;16.5108474338685;Fritsche et al. (2020);Experiment 1;Orientation
1;3;9;131;113.222908973015;0.96615497142875;1;-38;-17.7770910269848;Fritsche et al. (2020);Experiment 1;Orientation
1;3;10;97;102.866890439559;1.41623551999987;1;34;5.86689043955923;Fritsche et al. (2020);Experiment 1;Orientation
1;3;11;77;72.6983029154754;0.83283931428582;1;20;-4.30169708452456;Fritsche et al. (2020);Experiment 1;Orientation
1;3;12;21;38.1772020929488;1.38287798857141;2;56;17.1772020929488;Fritsche et al. (2020);Experiment 1;Orientation
1;3;13;40;42.449944855201;0.682850377142813;1;-19;2.44994485520098;Fritsche et al. (2020);Experiment 1;Orientation
1;3;14;98;117.587795588118;1.24954733714276;2;-58;19.5877955881176;Fritsche et al. (2020);Experiment 1;Orientation
1;3;15;59;75.2654469166749;1.01612141714281;2;39;16.2654469166749;Fritsche et al. (2020);Experiment 1;Orientation
1;3;16;94;99.2786562813026;1.89951890285715;1;-35;5.27865628130263;Fritsche et al. (2020);Experiment 1;Orientation
1;3;17;170;155.097275363246;0.982891519999839;1;-76;-14.9027246367538;Fritsche et al. (2020);Experiment 1;Orientation
1;3;18;38;40.1812163132819;1.08285696000007;2;-48;2.18121631328193;Fritsche et al. (2020);Experiment 1;Orientation
1;3;19;72;52.0011734039104;0.949527040000021;1;-34;-19.9988265960896;Fritsche et al. (2020);Experiment 1;Orientation
1;3;20;21;30.131432612007;1.09949147428574;1;51;9.13143261200698;Fritsche et al. (2020);Experiment 1;Orientation
1;3;21;65;50.1454405192994;1.03286637714291;1;-44;-14.8545594807006;Fritsche et al. (2020);Experiment 1;Orientation
1;3;22;54;39.0399064165957;0.982838857142951;2;11;-14.9600935834043;Fritsche et al. (2020);Experiment 1;Orientation
1;3;23;132;36.6396104146094;0.882854034285629;2;-78;84.6396104146094;Fritsche et al. (2020);Experiment 1;Orientation
1;3;24;147;134.988593857415;1.3162280228571;2;-15;-12.0114061425846;Fritsche et al. (2020);Experiment 1;Orientation
1;3;25;178;172.055544470509;0.83285869714291;1;-31;-5.94445552949131;Fritsche et al. (2020);Experiment 1;Orientation
1;3;26;180;161.704107053588;1.41618395428577;1;-2;-18.2958929464118;Fritsche et al. (2020);Experiment 1;Orientation
1;3;27;141;167.35870228063;1.11618194285711;2;39;26.3587022806296;Fritsche et al. (2020);Experiment 1;Orientation
1;3;28;39;36.4936831786237;0.916162559999975;2;-78;-2.50631682137632;Fritsche et al. (2020);Experiment 1;Orientation
1;3;29;70;48.1226867921299;0.84953197714276;2;-31;-21.8773132078701;Fritsche et al. (2020);Experiment 1;Orientation
1;3;30;176;177.875555273622;1.11617243428555;2;74;1.87555527362204;Fritsche et al. (2020);Experiment 1;Orientation
1;3;31;148;122.940054937072;1.29958619428589;1;28;-25.0599450629284;Fritsche et al. (2020);Experiment 1;Orientation
1;3;32;50;37.6897137150528;0.849495405714606;2;-82;-12.3102862849472;Fritsche et al. (2020);Experiment 1;Orientation
1;3;33;75;65.1148460423779;0.816186879999805;2;-25;-9.88515395762208;Fritsche et al. (2020);Experiment 1;Orientation
1;3;34;19;10.580034202096;1.14952301714266;2;56;-8.41996579790398;Fritsche et al. (2020);Experiment 1;Orientation
1;3;35;105;52.8259606153373;1.06624329142869;1;-86;-52.1740393846627;Fritsche et al. (2020);Experiment 1;Orientation
1;3;36;1;172.77224744833;0.699541577143009;2;-76;-8.22775255166954;Fritsche et al. (2020);Experiment 1;Orientation
1;3;37;42;41.6469324763371;0.832841142856978;2;-41;-0.353067523662851;Fritsche et al. (2020);Experiment 1;Orientation
1;3;38;64;49.4213475740537;0.799584182856961;1;-22;-14.5786524259463;Fritsche et al. (2020);Experiment 1;Orientation
1;3;39;142;132.350041502646;1.61622016000001;1;-78;-9.64995849735399;Fritsche et al. (2020);Experiment 1;Orientation
1;3;40;26;33.9383588203934;0.782843977142875;2;-64;7.93835882039343;Fritsche et al. (2020);Experiment 1;Orientation
1;3;41;164;137.070183770334;0.799520914285495;1;42;-26.9298162296664;Fritsche et al. (2020);Experiment 1;Orientation
1;3;42;174;149.260480049159;1.5995201828573;1;-10;-24.7395199508415;Fritsche et al. (2020);Experiment 1;Orientation
1;3;43;143;135.516451344487;1.43287588571411;2;31;-7.48354865551295;Fritsche et al. (2020);Experiment 1;Orientation
1;3;44;54;35.350072944784;1.16618898285697;1;89;-18.649927055216;Fritsche et al. (2020);Experiment 1;Orientation
1;3;45;19;14.8369945453574;0.832825417142885;2;35;-4.16300545464263;Fritsche et al. (2020);Experiment 1;Orientation
1;3;46;92;115.318778419723;1.26616685714271;1;-73;23.3187784197233;Fritsche et al. (2020);Experiment 1;Orientation
1;3;47;166;98.574687274116;1.24950893714276;2;-74;-67.425312725884;Fritsche et al. (2020);Experiment 1;Orientation
1;3;48;91;112.974422912804;1.23283126857132;1;75;21.974422912804;Fritsche et al. (2020);Experiment 1;Orientation
1;3;49;94;102.408624937485;0.966203611428682;1;-3;8.40862493748499;Fritsche et al. (2020);Experiment 1;Orientation
1;3;50;168;160.143527311776;1.09955583999999;2;-74;-7.85647268822396;Fritsche et al. (2020);Experiment 1;Orientation
1;3;51;34;42.1291673277915;0.782826057142756;1;-46;8.12916732779151;Fritsche et al. (2020);Experiment 1;Orientation
1;3;52;38;44.2458271587723;0.832825782857526;2;-4;6.24582715877227;Fritsche et al. (2020);Experiment 1;Orientation
1;3;53;55;52.8300720091434;0.866192457142915;1;-17;-2.16992799085664;Fritsche et al. (2020);Experiment 1;Orientation
1;3;54;152;131.5546343693;1.18287652571416;1;83;-20.4453656306997;Fritsche et al. (2020);Experiment 1;Orientation
1;3;55;165;142.687738270766;1.43284187428571;1;-13;-22.312261729234;Fritsche et al. (2020);Experiment 1;Orientation
1;3;56;176;157.761478730186;0.782901760000186;2;-11;-18.2385212698141;Fritsche et al. (2020);Experiment 1;Orientation
1;3;57;104;132.469677514365;1.06619684571433;1;72;28.4696775143652;Fritsche et al. (2020);Experiment 1;Orientation
1;3;58;27;34.4294190050051;0.699529142857045;2;77;7.4294190050051;Fritsche et al. (2020);Experiment 1;Orientation
1;3;59;157;148.395959299208;0.649541851428239;2;50;-8.60404070079193;Fritsche et al. (2020);Experiment 1;Orientation
1;3;60;14;33.8937992009295;1.03284480000002;2;-37;19.8937992009295;Fritsche et al. (2020);Experiment 1;Orientation
1;3;61;15;21.9880383290212;0.69947721142853;1;-1;6.98803832902119;Fritsche et al. (2020);Experiment 1;Orientation
1;3;62;79;82.3324662812249;1.1995713828569;2;-64;3.33246628122485;Fritsche et al. (2020);Experiment 1;Orientation
1;3;63;125;114.601641405509;0.716215588571231;2;-46;-10.3983585944912;Fritsche et al. (2020);Experiment 1;Orientation
1;3;64;10;3.82676053102695;1.78288201142868;2;-65;-6.17323946897305;Fritsche et al. (2020);Experiment 1;Orientation
1;3;65;13;11.8051861615862;0.916172800000368;1;-3;-1.19481383841382;Fritsche et al. (2020);Experiment 1;Orientation
1;3;66;34;34.3000513420965;0.916168045714585;1;-21;0.300051342096523;Fritsche et al. (2020);Experiment 1;Orientation
1;3;67;103;111.200617957418;0.866193554285474;1;-69;8.20061795741802;Fritsche et al. (2020);Experiment 1;Orientation
1;3;68;66;71.2347987004042;1.0662202514286;2;37;5.23479870040424;Fritsche et al. (2020);Experiment 1;Orientation
1;3;69;49;50.4059094941851;1.06835638857137;1;17;1.4059094941851;Fritsche et al. (2020);Experiment 1;Orientation
1;3;70;90;109.733654709077;1.08282367999982;1;-41;19.733654709077;Fritsche et al. (2020);Experiment 1;Orientation
1;3;71;121;129.122933981946;1.48288987428577;2;-31;8.12293398194626;Fritsche et al. (2020);Experiment 1;Orientation
1;3;72;39;45.4203787434788;0.949523017142837;2;82;6.42037874347881;Fritsche et al. (2020);Experiment 1;Orientation
1;3;73;133;115.692540146424;1.09950025142871;2;86;-17.3074598535755;Fritsche et al. (2020);Experiment 1;Orientation
1;3;74;66;122.954702569522;1.03286893714267;2;67;56.9547025695219;Fritsche et al. (2020);Experiment 1;Orientation
1;3;75;81;71.5371062318742;0.966102674285594;2;-15;-9.46289376812584;Fritsche et al. (2020);Experiment 1;Orientation
1;3;76;140;132.339536044574;0.899491474285696;1;-59;-7.66046395542611;Fritsche et al. (2020);Experiment 1;Orientation
1;3;77;49;61.4675417381899;1.03289929142829;2;-89;12.4675417381899;Fritsche et al. (2020);Experiment 1;Orientation
1;3;78;166;158.241953255643;0.982867382856966;2;63;-7.75804674435659;Fritsche et al. (2020);Experiment 1;Orientation
1;3;79;112;116.502311211792;1.03287478857146;1;54;4.50231121179189;Fritsche et al. (2020);Experiment 1;Orientation
1;3;80;170;158.55889483535;0.916190354285845;2;-58;-11.4411051646505;Fritsche et al. (2020);Experiment 1;Orientation
1;3;81;5;160.57594782844;1.14953910857139;2;-15;-24.4240521715597;Fritsche et al. (2020);Experiment 1;Orientation
1;3;82;4;5.33672663160925;0.93285449142877;2;1;1.33672663160925;Fritsche et al. (2020);Experiment 1;Orientation
1;4;1;167;136.495508810775;1.41584201142859;2;17;-30.5044911892251;Fritsche et al. (2020);Experiment 1;Orientation
1;4;2;175;8.91141215694971;1.18285458285709;1;-8;13.9114121569497;Fritsche et al. (2020);Experiment 1;Orientation
1;4;3;6;15.957043242132;0.716163657142715;2;-11;9.95704324213203;Fritsche et al. (2020);Experiment 1;Orientation
1;4;4;43;53.8096262001888;0.582817645714385;1;-37;10.8096262001888;Fritsche et al. (2020);Experiment 1;Orientation
1;4;5;33;45.2001600459312;1.29954816000009;2;10;12.2001600459312;Fritsche et al. (2020);Experiment 1;Orientation
1;4;6;54;33.9568580051165;0.882873417142946;2;-21;-20.0431419948835;Fritsche et al. (2020);Experiment 1;Orientation
1;4;7;38;49.9979337732876;0.782826057142756;1;16;11.9979337732876;Fritsche et al. (2020);Experiment 1;Orientation
1;4;8;19;39.3044900831492;1.23287442285709;1;19;20.3044900831492;Fritsche et al. (2020);Experiment 1;Orientation
1;4;9;25;51.1887224124305;0.566172525714137;1;-6;26.1887224124305;Fritsche et al. (2020);Experiment 1;Orientation
1;4;10;31;42.4098706511846;0.99953298285709;1;-6;11.4098706511846;Fritsche et al. (2020);Experiment 1;Orientation
1;4;11;94;60.9902196982466;1.06617746285701;1;-63;-33.0097803017534;Fritsche et al. (2020);Experiment 1;Orientation
1;4;12;78;66.5512213990091;1.13283949714287;2;16;-11.4487786009909;Fritsche et al. (2020);Experiment 1;Orientation
1;4;13;148;130.535002851883;0.632842240000173;2;-70;-17.464997148117;Fritsche et al. (2020);Experiment 1;Orientation
1;4;14;110;103.676810120377;1.06616356571431;2;38;-6.32318987962317;Fritsche et al. (2020);Experiment 1;Orientation
1;4;15;27;29.6427861562362;0.733015771428654;1;83;2.64278615623623;Fritsche et al. (2020);Experiment 1;Orientation
1;4;16;14;20.8139604818596;1.26619757714298;1;13;6.8139604818596;Fritsche et al. (2020);Experiment 1;Orientation
1;4;17;40;25.2331433425591;0.899552548571137;1;-26;-14.7668566574409;Fritsche et al. (2020);Experiment 1;Orientation
1;4;18;30;27.0421165273535;1.08285659428566;2;10;-2.95788347264649;Fritsche et al. (2020);Experiment 1;Orientation
1;4;19;127;122.857625942409;1.18285714285685;1;83;-4.14237405759071;Fritsche et al. (2020);Experiment 1;Orientation
1;4;20;2;4.41391033857479;0.782853851428627;2;-55;2.41391033857479;Fritsche et al. (2020);Experiment 1;Orientation
1;4;21;44;60.7739874343211;1.21618505142851;2;-42;16.7739874343211;Fritsche et al. (2020);Experiment 1;Orientation
1;4;22;6;1.59576234585654;1.21624502857139;1;38;-4.40423765414346;Fritsche et al. (2020);Experiment 1;Orientation
1;4;23;29;43.9306150266865;0.949527039999793;1;-23;14.9306150266865;Fritsche et al. (2020);Experiment 1;Orientation
1;4;24;132;127.476838011503;1.18278253714288;2;77;-4.52316198849708;Fritsche et al. (2020);Experiment 1;Orientation
1;4;25;169;151.49284482689;1.48287743999981;2;-37;-17.5071551731097;Fritsche et al. (2020);Experiment 1;Orientation
1;4;26;78;67.3936595485469;1.06619245714273;2;-89;-10.6063404514531;Fritsche et al. (2020);Experiment 1;Orientation
1;4;27;168;148.238928117748;1.08283794285717;1;-90;-19.761071882252;Fritsche et al. (2020);Experiment 1;Orientation
1;4;28;56;69.2173429643699;1.34952594285687;1;-68;13.2173429643699;Fritsche et al. (2020);Experiment 1;Orientation
1;4;29;55;53.694706474787;1.08283392000021;1;1;-1.30529352521298;Fritsche et al. (2020);Experiment 1;Orientation
1;4;30;154;130.171088472462;0.999458742856859;1;81;-23.8289115275384;Fritsche et al. (2020);Experiment 1;Orientation
1;4;31;119;113.27419386195;1.44954038857168;1;35;-5.72580613804951;Fritsche et al. (2020);Experiment 1;Orientation
1;4;32;27;39.9803870834218;1.43282980571439;2;-88;12.9803870834218;Fritsche et al. (2020);Experiment 1;Orientation
1;4;33;69;56.1284301512117;1.48287524571424;1;-42;-12.8715698487883;Fritsche et al. (2020);Experiment 1;Orientation
1;4;34;121;112.609461702347;0.932885577143225;1;-52;-8.39053829765311;Fritsche et al. (2020);Experiment 1;Orientation
1;4;35;14;22.6987282886464;1.18286262857146;1;-73;8.69872828864641;Fritsche et al. (2020);Experiment 1;Orientation
1;4;36;140;155.425823298;0.849493942857407;2;54;15.4258232980003;Fritsche et al. (2020);Experiment 1;Orientation
1;4;37;89;74.765645946581;0.632845531428757;2;51;-14.234354053419;Fritsche et al. (2020);Experiment 1;Orientation
1;4;38;79;66.9938828567189;0.816178468571252;2;10;-12.0061171432811;Fritsche et al. (2020);Experiment 1;Orientation
1;4;39;81;142.503221032462;0.966220068571147;1;-2;61.5032210324623;Fritsche et al. (2020);Experiment 1;Orientation
1;4;40;10;27.2059713544714;1.16619519999995;2;71;17.2059713544714;Fritsche et al. (2020);Experiment 1;Orientation
1;4;41;103;116.366903876044;1.26617453714289;2;87;13.3669038760445;Fritsche et al. (2020);Experiment 1;Orientation
1;4;42;122;127.678615926713;0.799490925714508;1;-19;5.67861592671348;Fritsche et al. (2020);Experiment 1;Orientation
1;4;43;60;72.6938172966454;1.13288045714262;2;62;12.6938172966454;Fritsche et al. (2020);Experiment 1;Orientation
1;4;44;41;51.1242986861472;0.81619821714321;1;19;10.1242986861472;Fritsche et al. (2020);Experiment 1;Orientation
1;4;45;86;70.915532942482;0.782855314285371;2;-45;-15.084467057518;Fritsche et al. (2020);Experiment 1;Orientation
1;4;46;94;100.651408750774;1.04946102857139;1;-8;6.6514087507739;Fritsche et al. (2020);Experiment 1;Orientation
1;4;47;166;173.974904906257;1.83283968000023;2;-72;7.97490490625688;Fritsche et al. (2020);Experiment 1;Orientation
1;4;48;42;36.1228442229308;1.54951935999998;1;-56;-5.87715577706919;Fritsche et al. (2020);Experiment 1;Orientation
1;4;49;77;60.577079779152;0.682859885714606;2;-35;-16.422920220848;Fritsche et al. (2020);Experiment 1;Orientation
1;4;50;97;114.433178602131;1.04950783999993;1;-20;17.4331786021306;Fritsche et al. (2020);Experiment 1;Orientation
1;4;51;114;114.2779061109;1.24950527999999;1;-17;0.277906110900105;Fritsche et al. (2020);Experiment 1;Orientation
1;4;52;9;27.7203719323822;1.48287524571424;2;-75;18.7203719323822;Fritsche et al. (2020);Experiment 1;Orientation
1;4;53;27;41.1468193232506;1.31624374857165;1;-18;14.1468193232506;Fritsche et al. (2020);Experiment 1;Orientation
1;4;54;105;123.773343518713;0.766231771428465;2;-78;18.7733435187133;Fritsche et al. (2020);Experiment 1;Orientation
1;4;55;71;59.719588875132;0.732827062857268;2;34;-11.280411124868;Fritsche et al. (2020);Experiment 1;Orientation
1;4;56;113;116.400886386196;1.43283602285692;2;-42;3.40088638619557;Fritsche et al. (2020);Experiment 1;Orientation
1;4;57;124;118.047390755867;1.28290523428541;2;-11;-5.95260924413337;Fritsche et al. (2020);Experiment 1;Orientation
1;4;58;43;37.8627714869498;0.566194834285852;2;81;-5.13722851305018;Fritsche et al. (2020);Experiment 1;Orientation
1;4;59;55;56.6140715888064;0.916200594285783;1;-12;1.61407158880636;Fritsche et al. (2020);Experiment 1;Orientation
1;4;60;125;102.18361613677;0.899542308571199;2;-70;-22.8163838632303;Fritsche et al. (2020);Experiment 1;Orientation
1;4;61;154;138.095293726324;0.866166491428885;1;-29;-15.9047062736756;Fritsche et al. (2020);Experiment 1;Orientation
1;4;62;2;20.7173985295914;1.39959039999985;1;-28;18.7173985295914;Fritsche et al. (2020);Experiment 1;Orientation
1;4;63;58;56.5206922706204;1.44954587428583;2;-56;-1.47930772937956;Fritsche et al. (2020);Experiment 1;Orientation
1;4;64;38;46.6971135532843;1.29952073142886;1;20;8.69711355328426;Fritsche et al. (2020);Experiment 1;Orientation
1;4;65;17;47.277343759387;0.982865920000222;1;21;30.277343759387;Fritsche et al. (2020);Experiment 1;Orientation
1;4;66;171;49.3966805113105;1.06616685714289;1;26;58.3966805113105;Fritsche et al. (2020);Experiment 1;Orientation
1;4;67;39;82.9331582267248;1.96620653714308;2;-48;43.9331582267248;Fritsche et al. (2020);Experiment 1;Orientation
1;4;68;72;105.269909217382;2.58285202285697;2;-33;33.269909217382;Fritsche et al. (2020);Experiment 1;Orientation
1;4;69;104;108.480451875959;5.56624749714274;2;-32;4.4804518759592;Fritsche et al. (2020);Experiment 1;Orientation
1;4;70;167;140.666066068014;1.04954221714252;2;-63;-26.3339339319859;Fritsche et al. (2020);Experiment 1;Orientation
1;4;71;67;144.371240507138;1.83296914285711;1;-80;77.371240507138;Fritsche et al. (2020);Experiment 1;Orientation
1;4;72;12;134.125652028111;1.46617417142852;1;55;-57.8743479718894;Fritsche et al. (2020);Experiment 1;Orientation
1;4;73;62;138.045099529389;0.949527040000248;2;-50;76.0450995293894;Fritsche et al. (2020);Experiment 1;Orientation
1;4;74;115;111.883398873347;1.08283684571461;2;-53;-3.1166011266528;Fritsche et al. (2020);Experiment 1;Orientation
1;4;75;38;51.9539799607492;1.08285147428569;2;77;13.9539799607492;Fritsche et al. (2020);Experiment 1;Orientation
1;4;76;108;108.145269229895;0.882829897142983;1;-70;0.145269229895462;Fritsche et al. (2020);Experiment 1;Orientation
1;4;77;97;121.645294702567;0.64949430857132;1;11;24.6452947025667;Fritsche et al. (2020);Experiment 1;Orientation
1;4;78;2;176.338182286153;1.19954688000007;1;-85;-5.66181771384666;Fritsche et al. (2020);Experiment 1;Orientation
1;4;79;174;166.435360439055;1.29954121142873;2;8;-7.56463956094507;Fritsche et al. (2020);Experiment 1;Orientation
1;4;80;150;157.08317027127;1.46617197714295;2;24;7.08317027126981;Fritsche et al. (2020);Experiment 1;Orientation
1;4;81;148;137.689929315211;1.28289682285686;2;2;-10.3100706847894;Fritsche et al. (2020);Experiment 1;Orientation
1;4;82;15;15.4396161792668;0.899507931428616;1;-47;0.439616179266778;Fritsche et al. (2020);Experiment 1;Orientation
1;5;1;66;51.3468661521128;1.33253632000014;2;-51;-14.6531338478872;Fritsche et al. (2020);Experiment 1;Orientation
1;5;2;110;121.561649205835;1.09948598857136;1;-44;11.5616492058345;Fritsche et al. (2020);Experiment 1;Orientation
1;5;3;169;159.880484699689;1.64954368000008;2;-59;-9.11951530031135;Fritsche et al. (2020);Experiment 1;Orientation
1;5;4;78;66.0425001143517;0.68282989714271;1;-89;-11.9574998856483;Fritsche et al. (2020);Experiment 1;Orientation
1;5;5;66;51.5315114380113;0.98283739428598;2;12;-14.4684885619887;Fritsche et al. (2020);Experiment 1;Orientation
1;5;6;13;36.7626302531004;1.04950674285737;1;53;23.7626302531004;Fritsche et al. (2020);Experiment 1;Orientation
1;5;7;121;122.174547578943;1.34958006857141;1;72;1.17454757894325;Fritsche et al. (2020);Experiment 1;Orientation
1;5;8;99;105.454394647696;0.882823314285361;1;22;6.45439464769618;Fritsche et al. (2020);Experiment 1;Orientation
1;5;9;24;43.329222800773;0.732827062857268;1;75;19.329222800773;Fritsche et al. (2020);Experiment 1;Orientation
1;5;10;46;52.4407706136036;0.849498331428549;1;-22;6.44077061360364;Fritsche et al. (2020);Experiment 1;Orientation
1;5;11;31;30.7668278330652;0.749525211428136;1;15;-0.233172166934835;Fritsche et al. (2020);Experiment 1;Orientation
1;5;12;54;47.5754843938414;0.682824411428555;1;-23;-6.42451560615856;Fritsche et al. (2020);Experiment 1;Orientation
1;5;13;60;61.7122047150542;1.11619364571425;2;-6;1.7122047150542;Fritsche et al. (2020);Experiment 1;Orientation
1;5;14;96;94.9285932476718;0.982830811428812;2;-36;-1.07140675232823;Fritsche et al. (2020);Experiment 1;Orientation
1;5;15;19;17.7127072366697;0.882899748571617;1;77;-1.28729276333029;Fritsche et al. (2020);Experiment 1;Orientation
1;5;16;3;169.632191569906;1.21620406857164;1;16;-13.3678084300943;Fritsche et al. (2020);Experiment 1;Orientation
1;5;17;145;136.44324433662;1.56622409142847;1;38;-8.5567556633801;Fritsche et al. (2020);Experiment 1;Orientation
1;5;18;84;57.2590494493011;1.26620489142852;2;61;-26.7409505506989;Fritsche et al. (2020);Experiment 1;Orientation
1;5;19;178;167.201969142621;0.999504091428662;2;86;-10.7980308573793;Fritsche et al. (2020);Experiment 1;Orientation
1;5;20;160;157.338201144094;1.33286985142831;1;18;-2.66179885590606;Fritsche et al. (2020);Experiment 1;Orientation
1;5;21;126;16.0456838509813;1.43283748571412;2;34;70.0456838509813;Fritsche et al. (2020);Experiment 1;Orientation
1;5;22;41;34.7656761558533;0.949569462857198;1;85;-6.23432384414666;Fritsche et al. (2020);Experiment 1;Orientation
1;5;23;73;57.8356282696397;1.06619940571454;1;-32;-15.1643717303603;Fritsche et al. (2020);Experiment 1;Orientation
1;5;24;91;99.6173891485164;1.01618395428568;1;-18;8.61738914851642;Fritsche et al. (2020);Experiment 1;Orientation
1;5;25;45;84.1790569752285;1.43287734857131;1;46;39.1790569752285;Fritsche et al. (2020);Experiment 1;Orientation
1;5;26;26;62.2167278891427;1.01621467428549;2;19;36.2167278891427;Fritsche et al. (2020);Experiment 1;Orientation
1;5;27;173;153.30471471261;1.16620397714314;2;33;-19.6952852873896;Fritsche et al. (2020);Experiment 1;Orientation
1;5;28;96;114.867071044916;0.666189165714059;2;77;18.8670710449156;Fritsche et al. (2020);Experiment 1;Orientation
1;5;29;85;80.3793133719882;1.4662400000002;1;11;-4.6206866280118;Fritsche et al. (2020);Experiment 1;Orientation
1;5;30;149;130.435122088614;1.23277458285702;2;-64;-18.5648779113861;Fritsche et al. (2020);Experiment 1;Orientation
1;5;31;73;117.94900977581;0.932832548571241;1;76;44.9490097758099;Fritsche et al. (2020);Experiment 1;Orientation
1;5;32;1;122.699020003797;1.49952073142867;1;72;-58.3009799962028;Fritsche et al. (2020);Experiment 1;Orientation
1;5;33;58;97.3598266085639;1.18284141714321;1;-57;39.3598266085639;Fritsche et al. (2020);Experiment 1;Orientation
1;5;34;132;133.579901228892;2.04956123428565;2;-74;1.57990122889169;Fritsche et al. (2020);Experiment 1;Orientation
1;5;35;91;107.311829759149;0.849506377142916;2;41;16.3118297591495;Fritsche et al. (2020);Experiment 1;Orientation
1;5;36;114;107.430229907626;1.04949357714304;1;-23;-6.56977009237356;Fritsche et al. (2020);Experiment 1;Orientation
1;5;37;27;68.4224499776892;1.34951533714275;1;87;41.4224499776892;Fritsche et al. (2020);Experiment 1;Orientation
1;5;38;68;67.2819562429532;0.966203977142868;2;-41;-0.718043757046786;Fritsche et al. (2020);Experiment 1;Orientation
1;5;39;10;25.1158392710528;1.23283967999987;1;58;15.1158392710528;Fritsche et al. (2020);Experiment 1;Orientation
1;5;40;38;49.9496561155567;0.899512685714399;1;-28;11.9496561155567;Fritsche et al. (2020);Experiment 1;Orientation
1;5;41;133;143.808474713471;1.43286016000002;2;85;10.8084747134714;Fritsche et al. (2020);Experiment 1;Orientation
1;5;42;92;100.216055855161;1.09949220571434;2;41;8.21605585516099;Fritsche et al. (2020);Experiment 1;Orientation
1;5;43;172;157.086737352363;1.21617261714255;2;-80;-14.9132626476365;Fritsche et al. (2020);Experiment 1;Orientation
1;5;44;27;26.2809792796928;1.06618697142858;2;-35;-0.719020720307164;Fritsche et al. (2020);Experiment 1;Orientation
1;5;45;160;151.699380049043;0.582852022856969;2;47;-8.30061995095679;Fritsche et al. (2020);Experiment 1;Orientation
1;5;46;74;66.4916851143957;1.34957238857169;1;86;-7.50831488560429;Fritsche et al. (2020);Experiment 1;Orientation
1;5;47;98;99.1096737481615;1.14948900571471;2;-24;1.10967374816148;Fritsche et al. (2020);Experiment 1;Orientation
1;5;48;69;67.592849218059;0.849538559999928;1;29;-1.40715078194096;Fritsche et al. (2020);Experiment 1;Orientation
1;5;49;114;98.3214096182041;0.949497782857179;1;-45;-15.6785903817959;Fritsche et al. (2020);Experiment 1;Orientation
1;5;50;78;81.0091330119813;0.882860982856982;2;36;3.00913301198133;Fritsche et al. (2020);Experiment 1;Orientation
1;5;51;47;51.3771663517942;0.699514879999697;2;31;4.37716635179424;Fritsche et al. (2020);Experiment 1;Orientation
1;5;52;15;12.2329613636403;1.68285951999997;2;32;-2.76703863635966;Fritsche et al. (2020);Experiment 1;Orientation
1;5;53;139;141.683645008856;1.19953627428595;2;56;2.68364500885571;Fritsche et al. (2020);Experiment 1;Orientation
1;5;54;107;133.079956692611;0.682857325714394;1;32;26.0799566926108;Fritsche et al. (2020);Experiment 1;Orientation
1;5;55;152;130.177546642308;1.46617417142852;1;-45;-21.8224533576916;Fritsche et al. (2020);Experiment 1;Orientation
1;5;56;108;115.117001532583;1.09946733714287;1;44;7.11700153258278;Fritsche et al. (2020);Experiment 1;Orientation
1;5;57;49;55.6059379365991;1.2495206399999;2;59;6.60593793659907;Fritsche et al. (2020);Experiment 1;Orientation
1;5;58;13;21.4653101703612;0.91618815999982;2;36;8.46531017036121;Fritsche et al. (2020);Experiment 1;Orientation
1;5;59;151;141.413575710169;0.599505188571584;2;42;-9.58642428983109;Fritsche et al. (2020);Experiment 1;Orientation
1;5;60;29;31.8440517913104;1.13286473142853;1;-58;2.84405179131037;Fritsche et al. (2020);Experiment 1;Orientation
1;5;61;62;44.293784799612;0.782891154285608;2;-33;-17.706215200388;Fritsche et al. (2020);Experiment 1;Orientation
1;5;62;103;122.398963792585;0.982850559999861;1;-41;19.3989637925855;Fritsche et al. (2020);Experiment 1;Orientation
1;5;63;119;113.184531351927;0.93285412571413;2;-16;-5.81546864807258;Fritsche et al. (2020);Experiment 1;Orientation
1;5;64;179;133.176900502885;1.6162077257145;1;-60;-45.8230994971152;Fritsche et al. (2020);Experiment 1;Orientation
1;5;65;150;131.136467943287;1.11615890285702;2;29;-18.8635320567126;Fritsche et al. (2020);Experiment 1;Orientation
1;5;66;50;39.5892779923218;0.982869577142537;2;-80;-10.4107220076782;Fritsche et al. (2020);Experiment 1;Orientation
1;5;67;94;77.0292753894262;1.08283647999997;2;-44;-16.9707246105738;Fritsche et al. (2020);Experiment 1;Orientation
1;5;68;32;34.8176484375541;1.04950271999996;2;62;2.81764843755408;Fritsche et al. (2020);Experiment 1;Orientation
1;5;69;36;36.465630861346;0.916158902856751;1;-4;0.465630861346035;Fritsche et al. (2020);Experiment 1;Orientation
1;5;70;97;54.9190547905941;1.24951990857153;1;-61;-42.0809452094059;Fritsche et al. (2020);Experiment 1;Orientation
1;5;71;59;67.8354298844983;0.849540388571313;2;38;8.83542988449828;Fritsche et al. (2020);Experiment 1;Orientation
1;5;72;132;139.116780795586;1.11619730285702;2;-73;7.11678079558601;Fritsche et al. (2020);Experiment 1;Orientation
1;5;73;50;111.191349217019;0.849562331428842;2;82;61.191349217019;Fritsche et al. (2020);Experiment 1;Orientation
1;5;74;157;166.88597718016;0.81622784000001;1;73;9.8859771801601;Fritsche et al. (2020);Experiment 1;Orientation
1;5;75;46;47.8379502834579;0.982849828571489;1;-69;1.8379502834579;Fritsche et al. (2020);Experiment 1;Orientation
1;5;76;80;60.720770732229;0.699528411428673;2;-34;-19.279229267771;Fritsche et al. (2020);Experiment 1;Orientation
1;5;77;141;143.699808494253;0.9328577828569;1;-61;2.69980849425284;Fritsche et al. (2020);Experiment 1;Orientation
1;5;78;173;167.137076942112;0.649493942857134;2;-32;-5.86292305788766;Fritsche et al. (2020);Experiment 1;Orientation
1;5;79;161;152.718915680103;1.24952393142848;1;12;-8.28108431989722;Fritsche et al. (2020);Experiment 1;Orientation
1;5;80;153;144.929519598015;0.899492937142895;2;8;-8.07048040198495;Fritsche et al. (2020);Experiment 1;Orientation
1;5;81;73;60.5558016872812;0.499552914285687;2;80;-12.4441983127188;Fritsche et al. (2020);Experiment 1;Orientation
1;5;82;7;10.9848590780504;0.799472640000204;1;66;3.98485907805041;Fritsche et al. (2020);Experiment 1;Orientation
1;6;1;165;163.935172950338;0.649192228571337;1;22;-1.06482704966163;Fritsche et al. (2020);Experiment 1;Orientation
1;6;2;83;63.6386824793187;1.0662034285715;2;82;-19.3613175206813;Fritsche et al. (2020);Experiment 1;Orientation
1;6;3;74;60.1993292357785;1.16617033142848;1;9;-13.8006707642215;Fritsche et al. (2020);Experiment 1;Orientation
1;6;4;69;64.8054676352568;1.24954953142833;2;5;-4.19453236474322;Fritsche et al. (2020);Experiment 1;Orientation
1;6;5;33;35.2073732180819;1.08289170285707;2;36;2.20737321808188;Fritsche et al. (2020);Experiment 1;Orientation
1;6;6;117;102.258472069988;0.866160274285448;2;-84;-14.7415279300115;Fritsche et al. (2020);Experiment 1;Orientation
1;6;7;79;73.0954371574588;1.33284169142871;2;38;-5.90456284254124;Fritsche et al. (2020);Experiment 1;Orientation
1;6;8;172;170.075291677682;0.999537737142873;1;87;-1.92470832231785;Fritsche et al. (2020);Experiment 1;Orientation
1;6;9;151;159.729732870391;0.699534994285841;1;21;8.72973287039093;Fritsche et al. (2020);Experiment 1;Orientation
1;6;10;147;148.125123357609;1.33283803428594;1;4;1.12512335760891;Fritsche et al. (2020);Experiment 1;Orientation
1;6;11;72;78.8359255093395;1.28287524571442;2;75;6.83592550933946;Fritsche et al. (2020);Experiment 1;Orientation
1;6;12;143;84.45973127378;0.782828982857154;1;-71;-58.54026872622;Fritsche et al. (2020);Experiment 1;Orientation
1;6;13;165;169.421605073938;0.832827611428456;2;-22;4.42160507393766;Fritsche et al. (2020);Experiment 1;Orientation
1;6;14;172;7.70603231095753;0.99956077714296;2;-7;15.7060323109575;Fritsche et al. (2020);Experiment 1;Orientation
1;6;15;41;22.7290364755526;1.01619382857143;1;-49;-18.2709635244474;Fritsche et al. (2020);Experiment 1;Orientation
1;6;16;12;23.3546348864923;0.816157988571376;2;29;11.3546348864923;Fritsche et al. (2020);Experiment 1;Orientation
1;6;17;71;42.5947680292144;0.832832365714239;1;-59;-28.4052319707856;Fritsche et al. (2020);Experiment 1;Orientation
1;6;18;134;105.098923103604;1.21616713142885;2;-63;-28.9010768963964;Fritsche et al. (2020);Experiment 1;Orientation
1;6;19;27;74.5150792156433;1.03283602285683;2;-73;47.5150792156433;Fritsche et al. (2020);Experiment 1;Orientation
1;6;20;170;131.83848432865;1.51617865142862;2;37;-38.1615156713496;Fritsche et al. (2020);Experiment 1;Orientation
1;6;21;6;19.6321448460186;0.766193737142657;2;-16;13.6321448460186;Fritsche et al. (2020);Experiment 1;Orientation
1;6;22;148;161.172506410911;0.766224091428739;1;38;13.1725064109115;Fritsche et al. (2020);Experiment 1;Orientation
1;6;23;108;120.319284756935;1.0495173485715;2;40;12.3192847569354;Fritsche et al. (2020);Experiment 1;Orientation
1;6;24;172;159.226385701621;1.2163836342861;1;-64;-12.7736142983787;Fritsche et al. (2020);Experiment 1;Orientation
1;6;25;59;56.8067138902082;0.599497874285589;1;-67;-2.19328610979177;Fritsche et al. (2020);Experiment 1;Orientation
1;6;26;166;146.414154847714;1.06619684571433;2;73;-19.585845152286;Fritsche et al. (2020);Experiment 1;Orientation
1;6;27;144;144.009736932867;1.39951945142866;2;22;0.00973693286698563;Fritsche et al. (2020);Experiment 1;Orientation
1;6;28;98;130.139837263617;0.699521462856865;1;46;32.1398372636168;Fritsche et al. (2020);Experiment 1;Orientation
1;6;29;61;106.818265665444;0.682816000000003;1;37;45.8182656654437;Fritsche et al. (2020);Experiment 1;Orientation
1;6;30;11;36.2053499242292;0.816187977142818;2;50;25.2053499242292;Fritsche et al. (2020);Experiment 1;Orientation
1;6;31;72;66.4162319836045;0.799499702857247;1;-61;-5.58376801639551;Fritsche et al. (2020);Experiment 1;Orientation
1;6;32;51;55.1547621954611;1.0494873599996;1;21;4.15476219546106;Fritsche et al. (2020);Experiment 1;Orientation
1;6;33;104;114.305270395028;0.966145097142999;1;-53;10.3052703950282;Fritsche et al. (2020);Experiment 1;Orientation
1;6;34;99;112.843786353768;0.832871131428874;2;5;13.8437863537682;Fritsche et al. (2020);Experiment 1;Orientation
1;6;35;85;78.6947134664176;1.26616137142855;1;14;-6.30528653358245;Fritsche et al. (2020);Experiment 1;Orientation
1;6;36;46;43.3152239191304;1.23284297142845;2;39;-2.68477608086958;Fritsche et al. (2020);Experiment 1;Orientation
1;6;37;25;38.3128981131254;0.799495680000291;2;21;13.3128981131254;Fritsche et al. (2020);Experiment 1;Orientation
1;6;38;62;61.9029150434798;0.732859977143107;2;-37;-0.0970849565202485;Fritsche et al. (2020);Experiment 1;Orientation
1;6;39;49;47.0266669141893;1.41625965714275;2;13;-1.97333308581074;Fritsche et al. (2020);Experiment 1;Orientation
1;6;40;123;101.670142289627;0.99955309714278;2;-74;-21.3298577103728;Fritsche et al. (2020);Experiment 1;Orientation
1;6;41;175;167.251125716081;0.766194468571484;1;-52;-7.74887428391901;Fritsche et al. (2020);Experiment 1;Orientation
1;6;42;31;39.2488339911857;1.08286354285701;1;-36;8.2488339911857;Fritsche et al. (2020);Experiment 1;Orientation
1;6;43;55;50.1870044685779;0.799483611428514;2;-24;-4.8129955314221;Fritsche et al. (2020);Experiment 1;Orientation
1;6;44;164;153.199505253286;0.9828282514286;2;71;-10.8004947467137;Fritsche et al. (2020);Experiment 1;Orientation
1;6;45;8;22.4854855926061;0.81620004571414;1;-24;14.4854855926061;Fritsche et al. (2020);Experiment 1;Orientation
1;6;46;132;122.738450076347;1.13285339428603;1;56;-9.26154992365335;Fritsche et al. (2020);Experiment 1;Orientation
1;6;47;155;138.497167096979;0.999542857142842;1;-23;-16.5028329030214;Fritsche et al. (2020);Experiment 1;Orientation
1;6;48;12;38.9506442479872;0.516189257142742;1;-37;26.9506442479872;Fritsche et al. (2020);Experiment 1;Orientation
1;6;49;122;121.19916828555;0.766163748571216;2;70;-0.800831714449743;Fritsche et al. (2020);Experiment 1;Orientation
1;6;50;33;52.8025741705339;0.916221805714031;1;89;19.8025741705339;Fritsche et al. (2020);Experiment 1;Orientation
1;6;51;67;78.5195604488707;0.932873508571447;1;-34;11.5195604488707;Fritsche et al. (2020);Experiment 1;Orientation
1;6;52;44;49.555918558477;1.18286665142841;1;23;5.555918558477;Fritsche et al. (2020);Experiment 1;Orientation
1;6;53;4;173.675014701002;0.749507657143113;1;40;-10.3249852989985;Fritsche et al. (2020);Experiment 1;Orientation
1;6;54;93;107.862141830499;0.899534628571473;1;-89;14.8621418304992;Fritsche et al. (2020);Experiment 1;Orientation
1;6;55;80;77.2267717113523;2.16618825142859;2;13;-2.77322828864766;Fritsche et al. (2020);Experiment 1;Orientation
1;6;56;135;122.1890003871;1.01616457142882;2;-55;-12.8109996128998;Fritsche et al. (2020);Experiment 1;Orientation
1;6;57;65;65.4223904366428;0.966207999999824;2;70;0.422390436642786;Fritsche et al. (2020);Experiment 1;Orientation
1;6;58;113;114.47124337729;0.732859977143107;1;-48;1.47124337728964;Fritsche et al. (2020);Experiment 1;Orientation
1;6;59;16;34.7432330378379;0.81619638857137;2;-83;18.7432330378379;Fritsche et al. (2020);Experiment 1;Orientation
1;6;60;54;40.1997000330098;0.916159268571391;2;-38;-13.8002999669902;Fritsche et al. (2020);Experiment 1;Orientation
1;6;61;87;110.711245314391;0.949532525714403;2;-33;23.7112453143912;Fritsche et al. (2020);Experiment 1;Orientation
1;6;62;54;47.2637759907047;0.899462217142627;2;33;-6.73622400929533;Fritsche et al. (2020);Experiment 1;Orientation
1;6;63;97;109.20831798661;1.34952923428591;1;-43;12.2083179866104;Fritsche et al. (2020);Experiment 1;Orientation
1;6;64;76;76.1863864481216;0.932833279999613;2;21;0.186386448121567;Fritsche et al. (2020);Experiment 1;Orientation
1;6;65;144;134.855631911029;0.71619693714274;2;-68;-9.14436808897057;Fritsche et al. (2020);Experiment 1;Orientation
1;6;66;51;59.0928223514157;0.932891794285297;1;-87;8.09282235141572;Fritsche et al. (2020);Experiment 1;Orientation
1;6;67;101;116.187193171725;1.08283465142858;2;-50;15.187193171725;Fritsche et al. (2020);Experiment 1;Orientation
1;6;68;51;48.7140531318212;0.766173257142782;2;50;-2.2859468681788;Fritsche et al. (2020);Experiment 1;Orientation
1;6;69;123;118.5533676297;0.982887497142656;1;-72;-4.44663237029953;Fritsche et al. (2020);Experiment 1;Orientation
1;6;70;148;133.576308733991;1.56617252571459;1;-25;-14.4236912660095;Fritsche et al. (2020);Experiment 1;Orientation
1;6;71;52;59.8068616419646;1.26620013714273;1;-84;7.80686164196456;Fritsche et al. (2020);Experiment 1;Orientation
1;6;72;75;72.6066968106555;1.41627062857151;1;-23;-2.39330318934449;Fritsche et al. (2020);Experiment 1;Orientation
1;6;73;29;29.0339480199537;0.916206079999938;1;46;0.0339480199537192;Fritsche et al. (2020);Experiment 1;Orientation
1;6;74;15;18.6060950509359;0.749533257142957;2;14;3.60609505093593;Fritsche et al. (2020);Experiment 1;Orientation
1;6;75;50;38.9047429447064;1.03285101714255;1;-35;-11.0952570552936;Fritsche et al. (2020);Experiment 1;Orientation
1;6;76;103;111.366967000437;1.23287186285734;1;-53;8.36696700043733;Fritsche et al. (2020);Experiment 1;Orientation
1;6;77;162;96.6567419612087;0.782867017142962;2;-59;-65.3432580387913;Fritsche et al. (2020);Experiment 1;Orientation
1;6;78;109;116.473906034769;1.31623021714267;1;53;7.47390603476894;Fritsche et al. (2020);Experiment 1;Orientation
1;6;79;160;123.692240191418;0.899489645714311;1;-51;-36.3077598085824;Fritsche et al. (2020);Experiment 1;Orientation
1;6;80;13;21.3121400032465;0.94948498285703;2;-33;8.31214000324648;Fritsche et al. (2020);Experiment 1;Orientation
1;6;81;68;64.3047672040343;0.882841965714306;1;-55;-3.69523279596568;Fritsche et al. (2020);Experiment 1;Orientation
1;6;82;174;160.659500398797;1.08287999999993;2;74;-13.3404996012034;Fritsche et al. (2020);Experiment 1;Orientation
1;7;1;78;55.5526898801798;1.065880502857;1;-84;-22.4473101198202;Fritsche et al. (2020);Experiment 1;Orientation
1;7;2;141;130.790814668101;1.03290148571432;2;-63;-10.2091853318991;Fritsche et al. (2020);Experiment 1;Orientation
1;7;3;79;67.4925877045048;0.632818468571259;1;62;-11.5074122954952;Fritsche et al. (2020);Experiment 1;Orientation
1;7;4;34;44.5763646797391;1.14950034285721;1;45;10.5763646797391;Fritsche et al. (2020);Experiment 1;Orientation
1;7;5;157;130.746477001257;1.71618267428585;2;57;-26.2535229987433;Fritsche et al. (2020);Experiment 1;Orientation
1;7;6;159;141.165034679976;1.38287579428561;2;-2;-17.8349653200235;Fritsche et al. (2020);Experiment 1;Orientation
1;7;7;107;119.367257179377;0.999487268571556;1;52;12.3672571793771;Fritsche et al. (2020);Experiment 1;Orientation
1;7;8;46;127.088237602003;0.649519542857433;1;61;81.0882376020027;Fritsche et al. (2020);Experiment 1;Orientation
1;7;9;137;135.398123530375;0.932876434285845;2;89;-1.60187646962476;Fritsche et al. (2020);Experiment 1;Orientation
1;7;10;3;9.5395035377706;1.26617453714289;1;-46;6.5395035377706;Fritsche et al. (2020);Experiment 1;Orientation
1;7;11;109;113.509107986087;0.832863085714507;2;74;4.50910798608729;Fritsche et al. (2020);Experiment 1;Orientation
1;7;12;126;125.58934901859;1.66614674285711;2;-17;-0.410650981409532;Fritsche et al. (2020);Experiment 1;Orientation
1;7;13;6;22.8682935877538;1.08286902857162;2;-60;16.8682935877538;Fritsche et al. (2020);Experiment 1;Orientation
1;7;14;23;27.7959097784703;1.16622153142862;2;-17;4.79590977847028;Fritsche et al. (2020);Experiment 1;Orientation
1;7;15;166;146.949639628421;1.41619382857107;2;37;-19.0503603715794;Fritsche et al. (2020);Experiment 1;Orientation
1;7;16;122;127.798971807918;0.832846994285319;1;44;5.79897180791772;Fritsche et al. (2020);Experiment 1;Orientation
1;7;17;89;91.3699901397702;0.899507200000244;2;33;2.3699901397702;Fritsche et al. (2020);Experiment 1;Orientation
1;7;18;81;66.8638521510042;0.849496502857164;1;8;-14.1361478489958;Fritsche et al. (2020);Experiment 1;Orientation
1;7;19;143;134.895970532793;0.782849097142844;1;-62;-8.10402946720652;Fritsche et al. (2020);Experiment 1;Orientation
1;7;20;69;63.3140392628274;0.749517531428864;1;74;-5.68596073717261;Fritsche et al. (2020);Experiment 1;Orientation
1;7;21;54;55.5605724950486;0.63278592000006;2;15;1.56057249504862;Fritsche et al. (2020);Experiment 1;Orientation
1;7;22;68;70.7056698051301;0.549561782856927;1;-14;2.70566980513014;Fritsche et al. (2020);Experiment 1;Orientation
1;7;23;32;42.0234722389263;1.06619647999969;1;36;10.0234722389263;Fritsche et al. (2020);Experiment 1;Orientation
1;7;24;1;159.126816440523;1.29950207999991;1;31;-21.8731835594766;Fritsche et al. (2020);Experiment 1;Orientation
1;7;25;4;176.58121942476;1.43285028571427;2;-3;-7.41878057523965;Fritsche et al. (2020);Experiment 1;Orientation
1;7;26;122;127.07658127914;0.816242834285731;2;62;5.0765812791398;Fritsche et al. (2020);Experiment 1;Orientation
1;7;27;105;112.965972749078;0.649527222857159;2;17;7.96597274907832;Fritsche et al. (2020);Experiment 1;Orientation
1;7;28;128;121.707838604939;1.06623012571436;2;-23;-6.29216139506133;Fritsche et al. (2020);Experiment 1;Orientation
1;7;29;1;177.75343810656;0.699529142857045;1;-53;-3.2465618934404;Fritsche et al. (2020);Experiment 1;Orientation
1;7;30;110;23.2918424327809;2.66626377142848;2;71;-86.7081575672191;Fritsche et al. (2020);Experiment 1;Orientation
1;7;31;152;130.356369268332;0.849540388571313;1;-42;-21.6436307316681;Fritsche et al. (2020);Experiment 1;Orientation
1;7;32;68;44.8963031923694;1.23285833142836;1;84;-23.1036968076306;Fritsche et al. (2020);Experiment 1;Orientation
1;7;33;110;114.503672991861;0.832867108571463;1;-42;4.50367299186081;Fritsche et al. (2020);Experiment 1;Orientation
1;7;34;150;127.291507332272;1.06625060571423;1;-40;-22.7084926677285;Fritsche et al. (2020);Experiment 1;Orientation
1;7;35;115;126.507051351289;1.24950491428581;1;35;11.5070513512888;Fritsche et al. (2020);Experiment 1;Orientation
1;7;36;81;81.2684697202074;0.966169234285644;2;34;0.268469720207406;Fritsche et al. (2020);Experiment 1;Orientation
1;7;37;81;62.7127677652471;0.98286701714278;2;0;-18.2872322347529;Fritsche et al. (2020);Experiment 1;Orientation
1;7;38;104;118.582891826733;0.566153874285646;1;-23;14.5828918267334;Fritsche et al. (2020);Experiment 1;Orientation
1;7;39;130;117.726835727391;1.16624457142871;1;-26;-12.2731642726092;Fritsche et al. (2020);Experiment 1;Orientation
1;7;40;178;0.964724097802161;1.41620333714263;1;-48;2.96472409780216;Fritsche et al. (2020);Experiment 1;Orientation
1;7;41;20;28.078200028596;0.78286079999998;2;-22;8.07820002859598;Fritsche et al. (2020);Experiment 1;Orientation
1;7;42;13;10.0678942119549;0.699541211428368;2;7;-2.93210578804515;Fritsche et al. (2020);Experiment 1;Orientation
1;7;43;47;50.6598204557671;0.899481965714131;2;-34;3.65982045576713;Fritsche et al. (2020);Experiment 1;Orientation
1;7;44;152;31.3153590056078;1.2328316342855;1;75;59.3153590056078;Fritsche et al. (2020);Experiment 1;Orientation
1;7;45;51;52.4905230683837;0.68288146285704;2;-79;1.49052306838372;Fritsche et al. (2020);Experiment 1;Orientation
1;7;46;1;11.5121840168314;0.816157257142549;2;50;10.5121840168314;Fritsche et al. (2020);Experiment 1;Orientation
1;7;47;133;136.648014630554;1.0995218285716;1;48;3.6480146305542;Fritsche et al. (2020);Experiment 1;Orientation
1;7;48;80;59.6126895452345;1.31620498285702;2;53;-20.3873104547655;Fritsche et al. (2020);Experiment 1;Orientation
1;7;49;57;63.8722180153187;1.14950546285718;1;23;6.87221801531869;Fritsche et al. (2020);Experiment 1;Orientation
1;7;50;90;92.1577837643283;1.18284982857131;2;-33;2.15778376432834;Fritsche et al. (2020);Experiment 1;Orientation
1;7;51;99;85.1906057376065;2.71619913142877;2;-9;-13.8093942623935;Fritsche et al. (2020);Experiment 1;Orientation
1;7;52;19;73.4423372080773;1.36620214857157;1;80;54.4423372080773;Fritsche et al. (2020);Experiment 1;Orientation
1;7;53;148;145.894256893066;0.866194651428486;2;51;-2.10574310693426;Fritsche et al. (2020);Experiment 1;Orientation
1;7;54;155;157.200728756344;0.899530605714062;2;-7;2.20072875634378;Fritsche et al. (2020);Experiment 1;Orientation
1;7;55;139;127.961892322352;0.882846719999634;1;16;-11.0381076776477;Fritsche et al. (2020);Experiment 1;Orientation
1;7;56;24;52.5631575313809;1.04954404571436;1;-65;28.5631575313809;Fritsche et al. (2020);Experiment 1;Orientation
1;7;57;97;100.729109491379;0.866165760000058;2;-73;3.72910949137945;Fritsche et al. (2020);Experiment 1;Orientation
1;7;58;57;64.2269272365855;0.59956480000028;1;40;7.22692723658551;Fritsche et al. (2020);Experiment 1;Orientation
1;7;59;20;31.0335498704528;0.932865097142894;2;37;11.0335498704528;Fritsche et al. (2020);Experiment 1;Orientation
1;7;60;161;40.4008565738841;0.799529325714502;1;39;59.4008565738841;Fritsche et al. (2020);Experiment 1;Orientation
1;7;61;0;6.72404498671492;1.29954962285728;2;-19;6.72404498671492;Fritsche et al. (2020);Experiment 1;Orientation
1;7;62;61;53.5057551651133;0.999550537142568;1;-61;-7.49424483488674;Fritsche et al. (2020);Experiment 1;Orientation
1;7;63;157;146.813226515811;0.949498514285551;1;84;-10.1867734841885;Fritsche et al. (2020);Experiment 1;Orientation
1;7;64;19;12.1405691693542;0.899537188571685;1;-42;-6.85943083064581;Fritsche et al. (2020);Experiment 1;Orientation
1;7;65;147;141.768020880081;1.11622509714289;1;52;-5.23197911991912;Fritsche et al. (2020);Experiment 1;Orientation
1;7;66;43;31.5581965634201;0.616198217142937;1;-76;-11.4418034365799;Fritsche et al. (2020);Experiment 1;Orientation
1;7;67;22;14.5102117986479;0.93283035428567;1;21;-7.48978820135207;Fritsche et al. (2020);Experiment 1;Orientation
1;7;68;71;44.8077743704357;1.3995479771429;2;-49;-26.1922256295643;Fritsche et al. (2020);Experiment 1;Orientation
1;7;69;160;66.4499129427103;1.69958180571439;1;-89;86.4499129427103;Fritsche et al. (2020);Experiment 1;Orientation
1;7;70;155;129.400883386674;1.19951469714306;1;5;-25.5991166133257;Fritsche et al. (2020);Experiment 1;Orientation
1;7;71;5;103.985270344407;1.13288118857145;2;-30;-81.0147296555928;Fritsche et al. (2020);Experiment 1;Orientation
1;7;72;43;56.2142754499115;0.69949220571425;2;-38;13.2142754499115;Fritsche et al. (2020);Experiment 1;Orientation
1;7;73;138;132.578498264323;0.766190080000342;2;85;-5.42150173567737;Fritsche et al. (2020);Experiment 1;Orientation
1;7;74;9;30.1660507670683;1.33285997714302;2;-51;21.1660507670683;Fritsche et al. (2020);Experiment 1;Orientation
1;7;75;74;74.215365324868;0.666206354285805;2;-65;0.215365324868003;Fritsche et al. (2020);Experiment 1;Orientation
1;7;76;8;25.0476027945028;1.23290697142829;1;66;17.0476027945028;Fritsche et al. (2020);Experiment 1;Orientation
1;7;77;28;19.4556940421746;0.682854765714183;1;-20;-8.5443059578254;Fritsche et al. (2020);Experiment 1;Orientation
1;7;78;37;17.1934919209487;0.782985142856887;2;-9;-19.8065080790513;Fritsche et al. (2020);Experiment 1;Orientation
1;7;79;104;119.301196817336;0.932828160000099;2;-67;15.3011968173362;Fritsche et al. (2020);Experiment 1;Orientation
1;7;80;118;126.604727391868;1.11623168000006;2;-14;8.60472739186841;Fritsche et al. (2020);Experiment 1;Orientation
1;7;81;174;152.523814172085;0.93283218285751;1;-56;-21.4761858279147;Fritsche et al. (2020);Experiment 1;Orientation
1;7;82;100;119.16536372809;0.999502628571463;2;74;19.1653637280897;Fritsche et al. (2020);Experiment 1;Orientation
1;8;1;24;35.0442484417778;1.23251090285703;2;76;11.0442484417778;Fritsche et al. (2020);Experiment 1;Orientation
1;8;2;64;51.8556963214153;0.882825508571386;2;-40;-12.1443036785847;Fritsche et al. (2020);Experiment 1;Orientation
1;8;3;61;54.6251885447818;0.966115474285743;1;3;-6.37481145521818;Fritsche et al. (2020);Experiment 1;Orientation
1;8;4;54;53.8100061573693;0.632827611428638;2;7;-0.189993842630727;Fritsche et al. (2020);Experiment 1;Orientation
1;8;5;59;41.8441241156062;0.966165577142874;2;-5;-17.1558758843938;Fritsche et al. (2020);Experiment 1;Orientation
1;8;6;72;57.0735976645007;1.16619190857182;2;-13;-14.9264023354993;Fritsche et al. (2020);Experiment 1;Orientation
1;8;7;81;59.4365603311251;0.716223634286052;2;-9;-21.5634396688749;Fritsche et al. (2020);Experiment 1;Orientation
1;8;8;105;36.4045260978498;0.932869485714491;1;-24;-68.5954739021502;Fritsche et al. (2020);Experiment 1;Orientation
1;8;9;137;127.24416685736;0.966164479999861;1;-32;-9.75583314264031;Fritsche et al. (2020);Experiment 1;Orientation
1;8;10;89;78.3813391279055;0.849540022857127;1;48;-10.6186608720945;Fritsche et al. (2020);Experiment 1;Orientation
1;8;11;93;110.986481931304;1.19957284571456;2;-4;17.9864819313039;Fritsche et al. (2020);Experiment 1;Orientation
1;8;12;151;140.319851172213;1.14949522285679;1;-58;-10.6801488277867;Fritsche et al. (2020);Experiment 1;Orientation
1;8;13;155;141.21169059773;1.08291803428529;2;-4;-13.78830940227;Fritsche et al. (2020);Experiment 1;Orientation
1;8;14;41;127.778976706333;0.849539657142941;1;-66;86.778976706333;Fritsche et al. (2020);Experiment 1;Orientation
1;8;15;150;134.108647436253;0.966209462857478;1;71;-15.8913525637472;Fritsche et al. (2020);Experiment 1;Orientation
1;8;16;149;146.445566528175;0.916187428571448;1;1;-2.55443347182538;Fritsche et al. (2020);Experiment 1;Orientation
1;8;17;80;49.5004160525276;0.966120959999898;1;69;-30.4995839474724;Fritsche et al. (2020);Experiment 1;Orientation
1;8;18;1;22.1480490061933;0.766190079999888;1;79;21.1480490061933;Fritsche et al. (2020);Experiment 1;Orientation
1;8;19;154;160.573330462107;0.932910445714242;2;27;6.57333046210678;Fritsche et al. (2020);Experiment 1;Orientation
1;8;20;31;30.3926953941294;1.4162157714286;1;-57;-0.607304605870574;Fritsche et al. (2020);Experiment 1;Orientation
1;8;21;65;60.2320695183688;0.782903954285757;1;-34;-4.76793048163121;Fritsche et al. (2020);Experiment 1;Orientation
1;8;22;58;53.2686226437579;0.782854582857453;1;7;-4.73137735624211;Fritsche et al. (2020);Experiment 1;Orientation
1;8;23;94;108.358958508529;1.09955145142885;2;-36;14.3589585085285;Fritsche et al. (2020);Experiment 1;Orientation
1;8;24;111;97.1046274803898;0.849536000000171;2;-17;-13.8953725196102;Fritsche et al. (2020);Experiment 1;Orientation
1;8;25;27;43.5092411732234;1.01623259428561;1;84;16.5092411732234;Fritsche et al. (2020);Experiment 1;Orientation
1;8;26;165;154.762874346063;0.81615762285719;2;42;-10.237125653937;Fritsche et al. (2020);Experiment 1;Orientation
1;8;27;101;157.932548201426;1.64953087999993;1;64;56.9325482014257;Fritsche et al. (2020);Experiment 1;Orientation
1;8;28;44;131.633234921191;1.31618340571458;2;57;87.6332349211913;Fritsche et al. (2020);Experiment 1;Orientation
1;8;29;44;50.3293469961312;0.532842057142716;1;0;6.32934699613121;Fritsche et al. (2020);Experiment 1;Orientation
1;8;30;59;45.0814074606448;1.14951204571435;2;-15;-13.9185925393552;Fritsche et al. (2020);Experiment 1;Orientation
1;8;31;42;68.3170208577794;0.49950975999991;2;17;26.3170208577794;Fritsche et al. (2020);Experiment 1;Orientation
1;8;32;107;114.706518182171;0.816133119999904;1;-65;7.70651818217098;Fritsche et al. (2020);Experiment 1;Orientation
1;8;33;50;52.625107110938;0.916301165713776;2;57;2.62510711093796;Fritsche et al. (2020);Experiment 1;Orientation
1;8;34;108;77.8186483432397;0.899530605714062;1;-58;-30.1813516567603;Fritsche et al. (2020);Experiment 1;Orientation
1;8;35;73;61.3077813380605;1.1328599771432;1;35;-11.6922186619395;Fritsche et al. (2020);Experiment 1;Orientation
1;8;36;29;39.9645776171849;1.09949769142804;2;44;10.9645776171849;Fritsche et al. (2020);Experiment 1;Orientation
1;8;37;68;56.2350894131333;0.832766537142561;2;-39;-11.7649105868667;Fritsche et al. (2020);Experiment 1;Orientation
1;8;38;91;95.7966730939235;1.0495114971427;2;-23;4.7966730939235;Fritsche et al. (2020);Experiment 1;Orientation
1;8;39;49;58.5628141880088;1.24952210285664;1;42;9.56281418800879;Fritsche et al. (2020);Experiment 1;Orientation
1;8;40;127;117.96879427098;0.699492205713796;2;-78;-9.03120572901972;Fritsche et al. (2020);Experiment 1;Orientation
1;8;41;141;136.080617307669;0.499573028571831;2;-14;-4.91938269233083;Fritsche et al. (2020);Experiment 1;Orientation
1;8;42;78;55.4471299961817;2.26623378285785;2;63;-22.5528700038183;Fritsche et al. (2020);Experiment 1;Orientation
1;8;43;26;27.4341219365125;0.682826605714581;2;52;1.4341219365125;Fritsche et al. (2020);Experiment 1;Orientation
1;8;44;118;124.777984000888;1.36620946285711;2;88;6.77798400088841;Fritsche et al. (2020);Experiment 1;Orientation
1;8;45;137;118.399106960674;1.04958098285715;1;-19;-18.6008930393262;Fritsche et al. (2020);Experiment 1;Orientation
1;8;46;31;28.9186600579618;0.966154239999923;1;-74;-2.08133994203822;Fritsche et al. (2020);Experiment 1;Orientation
1;8;47;51;53.8559798220096;0.966158262856879;2;-20;2.85597982200957;Fritsche et al. (2020);Experiment 1;Orientation
1;8;48;171;169.202035714883;1.04950857142921;1;60;-1.79796428511719;Fritsche et al. (2020);Experiment 1;Orientation
1;8;49;109;111.012255347281;1.14953764571419;2;62;2.01225534728107;Fritsche et al. (2020);Experiment 1;Orientation
1;8;50;68;12.4086683856818;2.09954486857168;1;41;-55.5913316143182;Fritsche et al. (2020);Experiment 1;Orientation
1;8;51;29;40.5513307535568;0.682890971428606;2;39;11.5513307535568;Fritsche et al. (2020);Experiment 1;Orientation
1;8;52;148;47.9791642872164;1.14953801142838;1;61;79.9791642872164;Fritsche et al. (2020);Experiment 1;Orientation
1;8;53;148;135.151843431928;1.16616850285754;1;0;-12.8481565680723;Fritsche et al. (2020);Experiment 1;Orientation
1;8;54;20;35.8930100091734;1.0828609828568;1;-52;15.8930100091734;Fritsche et al. (2020);Experiment 1;Orientation
1;8;55;84;76.413316107887;1.33285924571464;2;-64;-7.58668389211299;Fritsche et al. (2020);Experiment 1;Orientation
1;8;56;147;134.213251468144;1.3995395657148;2;-63;-12.7867485318563;Fritsche et al. (2020);Experiment 1;Orientation
1;8;57;14;9.92907448296637;0.932882285715095;2;-47;-4.07092551703363;Fritsche et al. (2020);Experiment 1;Orientation
1;8;58;176;146.745396924808;1.43283565714319;1;18;-29.2546030751919;Fritsche et al. (2020);Experiment 1;Orientation
1;8;59;161;148.357410250443;0.649488091428793;1;15;-12.6425897495568;Fritsche et al. (2020);Experiment 1;Orientation
1;8;60;177;158.548937611798;1.28283574857142;1;-16;-18.4510623882016;Fritsche et al. (2020);Experiment 1;Orientation
1;8;61;4;17.1487668561339;1.03282651428617;1;-7;13.1487668561339;Fritsche et al. (2020);Experiment 1;Orientation
1;8;62;36;51.7881247739537;1.48291145142866;1;-32;15.7881247739537;Fritsche et al. (2020);Experiment 1;Orientation
1;8;63;77;66.832037298249;1.14958482285783;1;-41;-10.167962701751;Fritsche et al. (2020);Experiment 1;Orientation
1;8;64;89;93.5160533967066;1.16619922285736;2;-12;4.51605339670664;Fritsche et al. (2020);Experiment 1;Orientation
1;8;65;74;55.295646762767;1.04949540571397;2;15;-18.704353237233;Fritsche et al. (2020);Experiment 1;Orientation
1;8;66;133;111.279843122443;0.99951835428601;1;-59;-21.7201568775569;Fritsche et al. (2020);Experiment 1;Orientation
1;8;67;115;125.293578163863;1.46619977142927;1;18;10.2935781638625;Fritsche et al. (2020);Experiment 1;Orientation
1;8;68;160;126.914625829704;1.01638838857161;2;-45;-33.0853741702956;Fritsche et al. (2020);Experiment 1;Orientation
1;8;69;7;152.431683683916;1.04951040000014;2;-27;-34.5683163160843;Fritsche et al. (2020);Experiment 1;Orientation
1;8;70;133;133.819845807263;0.882845622856621;2;54;0.819845807262595;Fritsche et al. (2020);Experiment 1;Orientation
1;8;71;73;57.8814675288844;0.899520731428311;1;60;-15.1185324711156;Fritsche et al. (2020);Experiment 1;Orientation
1;8;72;41;49.6153037183481;0.699494399999821;2;32;8.61530371834811;Fritsche et al. (2020);Experiment 1;Orientation
1;8;73;115;118.714444885475;1.36617215999922;2;-74;3.71444488547455;Fritsche et al. (2020);Experiment 1;Orientation
1;8;74;117;141.727595491188;1.36619922285718;2;-2;24.727595491188;Fritsche et al. (2020);Experiment 1;Orientation
1;8;75;137;123.229290090562;0.582862628571093;2;-20;-13.7707099094379;Fritsche et al. (2020);Experiment 1;Orientation
1;8;76;179;2.16459270213289;1.28286573714286;1;-42;3.16459270213289;Fritsche et al. (2020);Experiment 1;Orientation
1;8;77;139;139.327064268951;0.866165759999603;1;40;0.327064268951489;Fritsche et al. (2020);Experiment 1;Orientation
1;8;78;37;36.3142373355342;1.03282870857129;2;-78;-0.68576266446582;Fritsche et al. (2020);Experiment 1;Orientation
1;8;79;114;141.448901462244;0.766269805714728;1;-77;27.4489014622442;Fritsche et al. (2020);Experiment 1;Orientation
1;8;80;177;162.800406625228;1.19951104000029;1;-63;-14.1995933747718;Fritsche et al. (2020);Experiment 1;Orientation
1;8;81;126;104.740971403178;1.06612735999988;2;51;-21.2590285968221;Fritsche et al. (2020);Experiment 1;Orientation
1;8;82;68;44.4230609463459;0.832841874285805;2;58;-23.5769390536541;Fritsche et al. (2020);Experiment 1;Orientation
1;9;1;1;18.7644220728261;0.89918061714252;2;67;17.7644220728261;Fritsche et al. (2020);Experiment 1;Orientation
1;9;2;171;166.577479942353;0.999470445713996;2;10;-4.42252005764703;Fritsche et al. (2020);Experiment 1;Orientation
1;9;3;154;165.152186498291;0.716170239999883;2;17;11.152186498291;Fritsche et al. (2020);Experiment 1;Orientation
1;9;4;128;168.109775337804;0.91619766857184;2;26;40.1097753378043;Fritsche et al. (2020);Experiment 1;Orientation
1;9;5;145;150.169803410358;1.06618404571418;1;-17;5.16980341035764;Fritsche et al. (2020);Experiment 1;Orientation
1;9;6;28;24.6563230218599;1.06619318857156;2;-63;-3.34367697814011;Fritsche et al. (2020);Experiment 1;Orientation
1;9;7;170;12.1908198744747;1.69955035428575;1;38;22.1908198744747;Fritsche et al. (2020);Experiment 1;Orientation
1;9;8;26;20.4981792078038;0.799424731429099;2;-36;-5.50182079219624;Fritsche et al. (2020);Experiment 1;Orientation
1;9;9;14;38.6574543136758;0.882886217143096;2;12;24.6574543136758;Fritsche et al. (2020);Experiment 1;Orientation
1;9;10;156;160.500316259879;0.866182582856709;1;38;4.50031625987913;Fritsche et al. (2020);Experiment 1;Orientation
1;9;11;41;25.5115227017872;0.51619803428548;2;-65;-15.4884772982128;Fritsche et al. (2020);Experiment 1;Orientation
1;9;12;166;49.6287975170496;1.04948187428636;1;55;63.6287975170496;Fritsche et al. (2020);Experiment 1;Orientation
1;9;13;126;21.2137536275635;0.732873142856988;1;40;75.2137536275635;Fritsche et al. (2020);Experiment 1;Orientation
1;9;14;115;92.6356301508466;0.99953298285709;2;11;-22.3643698491534;Fritsche et al. (2020);Experiment 1;Orientation
1;9;15;111;104.4265187149;0.849583908570821;2;4;-6.57348128510021;Fritsche et al. (2020);Experiment 1;Orientation
1;9;16;120;130.534859213203;1.0328535771423;1;-9;10.5348592132033;Fritsche et al. (2020);Experiment 1;Orientation
1;9;17;115;118.517213025244;0.882871588572016;1;5;3.5172130252444;Fritsche et al. (2020);Experiment 1;Orientation
1;9;18;152;96.5872696025699;2.78285202285679;1;-37;-55.4127303974301;Fritsche et al. (2020);Experiment 1;Orientation
1;9;19;86;83.8797856344615;1.38284470857161;2;66;-2.12021436553847;Fritsche et al. (2020);Experiment 1;Orientation
1;9;20;68;67.4067176857501;1.216211017143;1;18;-0.593282314249862;Fritsche et al. (2020);Experiment 1;Orientation
1;9;21;65;66.764862006015;0.749570560000393;2;3;1.76486200601501;Fritsche et al. (2020);Experiment 1;Orientation
1;9;22;132;136.209945349294;1.21617005714234;1;-67;4.20994534929369;Fritsche et al. (2020);Experiment 1;Orientation
1;9;23;112;111.183910311934;1.43287808000059;1;20;-0.816089688066256;Fritsche et al. (2020);Experiment 1;Orientation
1;9;24;88;69.1056550934247;0.999565897142929;2;24;-18.8943449065753;Fritsche et al. (2020);Experiment 1;Orientation
1;9;25;175;154.954882726798;1.49954084571436;2;-87;-20.0451172732019;Fritsche et al. (2020);Experiment 1;Orientation
1;9;26;3;10.3554707415822;1.04952612571378;1;-8;7.35547074158224;Fritsche et al. (2020);Experiment 1;Orientation
1;9;27;128;138.793701825765;1.23289453714278;1;55;10.7937018257655;Fritsche et al. (2020);Experiment 1;Orientation
1;9;28;13;14.3884301424215;1.31621083428581;1;-65;1.38843014242146;Fritsche et al. (2020);Experiment 1;Orientation
1;9;29;87;57.2220728235291;0.866196845713603;1;-74;-29.7779271764709;Fritsche et al. (2020);Experiment 1;Orientation
1;9;30;88;73.9818192869103;1.31612745142866;2;-1;-14.0181807130897;Fritsche et al. (2020);Experiment 1;Orientation
1;9;31;84;125.686671178353;2.91626020571493;1;4;41.6866711783531;Fritsche et al. (2020);Experiment 1;Orientation
1;9;32;91;81.4613434356478;1.09950244571428;1;-7;-9.53865656435224;Fritsche et al. (2020);Experiment 1;Orientation
1;9;33;91;80.7212200550924;1.01630829714304;2;0;-10.2787799449076;Fritsche et al. (2020);Experiment 1;Orientation
1;9;34;77;74.0815570682971;0.649498697142917;1;14;-2.9184429317029;Fritsche et al. (2020);Experiment 1;Orientation
1;9;35;153;157.422362253613;0.516151954285306;2;-76;4.42236225361302;Fritsche et al. (2020);Experiment 1;Orientation
1;9;36;18;19.8781801198087;0.749489371428353;1;-45;1.87818011980873;Fritsche et al. (2020);Experiment 1;Orientation
1;9;37;98;118.265815755173;0.949532160000672;2;-80;20.2658157551728;Fritsche et al. (2020);Experiment 1;Orientation
1;9;38;64;68.1823019465661;1.26617051428548;2;34;4.18230194656611;Fritsche et al. (2020);Experiment 1;Orientation
1;9;39;162;144.0177567612;0.682930834285798;1;82;-17.9822432387996;Fritsche et al. (2020);Experiment 1;Orientation
1;9;40;65;50.7936599074148;0.88286756571506;1;-83;-14.2063400925852;Fritsche et al. (2020);Experiment 1;Orientation
1;9;41;125;116.083128369539;0.799531885714714;1;-60;-8.91687163046061;Fritsche et al. (2020);Experiment 1;Orientation
1;9;42;167;141.928324739685;0.766160091428901;1;-42;-25.0716752603152;Fritsche et al. (2020);Experiment 1;Orientation
1;9;43;37;37.6129800746578;1.33294738285713;1;-50;0.612980074657763;Fritsche et al. (2020);Experiment 1;Orientation
1;9;44;170;152.017214266767;1.31616694857166;1;47;-17.9827857332333;Fritsche et al. (2020);Experiment 1;Orientation
1;9;45;63;50.746494937792;1.26620928000011;1;-73;-12.253505062208;Fritsche et al. (2020);Experiment 1;Orientation
1;9;46;5;1.50274242198431;1.3495178971425;1;58;-3.49725757801569;Fritsche et al. (2020);Experiment 1;Orientation
1;9;47;25;16.9278071002014;1.24954258285743;2;-20;-8.07219289979857;Fritsche et al. (2020);Experiment 1;Orientation
1;9;48;136;121.894743102975;1.18283849142881;1;69;-14.1052568970249;Fritsche et al. (2020);Experiment 1;Orientation
1;9;49;177;167.578948159236;0.84955391999938;2;-41;-9.42105184076399;Fritsche et al. (2020);Experiment 1;Orientation
1;9;50;19;22.3431128629673;1.08286244571354;2;-22;3.34311286296727;Fritsche et al. (2020);Experiment 1;Orientation
1;9;51;35;20.8431943958954;0.699510857142741;2;-16;-14.1568056041046;Fritsche et al. (2020);Experiment 1;Orientation
1;9;52;110;100.687049335271;0.899506468571417;2;-75;-9.31295066472937;Fritsche et al. (2020);Experiment 1;Orientation
1;9;53;174;147.778104105282;1.34953874285748;1;-64;-26.2218958947184;Fritsche et al. (2020);Experiment 1;Orientation
1;9;54;76;155.470417646184;1.28283574857142;2;-82;79.4704176461841;Fritsche et al. (2020);Experiment 1;Orientation
1;9;55;158;167.829461402342;1.28289389714337;1;-82;9.82946140234236;Fritsche et al. (2020);Experiment 1;Orientation
1;9;56;115;104.429595285215;0.782858605713955;1;43;-10.5704047147849;Fritsche et al. (2020);Experiment 1;Orientation
1;9;57;155;120.308306996398;0.732850468571087;2;-40;-34.6916930036019;Fritsche et al. (2020);Experiment 1;Orientation
1;9;58;70;68.9788530793191;0.94956617142816;2;85;-1.02114692068092;Fritsche et al. (2020);Experiment 1;Orientation
1;9;59;44;59.6649820398022;0.91615853714211;1;26;15.6649820398022;Fritsche et al. (2020);Experiment 1;Orientation
1;9;60;157;6.45892255153153;0.616159085714571;1;67;29.4589225515315;Fritsche et al. (2020);Experiment 1;Orientation
1;9;61;26;26.5052145813123;0.632837851429031;2;-49;0.505214581312316;Fritsche et al. (2020);Experiment 1;Orientation
1;9;62;153;148.805044281707;0.98282239999935;2;53;-4.19495571829304;Fritsche et al. (2020);Experiment 1;Orientation
1;9;63;3;177.596751995058;0.882862445714636;2;-30;-5.40324800494193;Fritsche et al. (2020);Experiment 1;Orientation
1;9;64;140;135.587242201953;0.849489554285356;2;43;-4.41275779804693;Fritsche et al. (2020);Experiment 1;Orientation
1;9;65;117;125.620768735702;0.649492114285749;2;23;8.62076873570217;Fritsche et al. (2020);Experiment 1;Orientation
1;9;66;154;115.625192727596;0.516224365715061;1;-37;-38.3748072724037;Fritsche et al. (2020);Experiment 1;Orientation
1;9;67;168;158.446863980106;1.09951744000045;1;-14;-9.55313601989377;Fritsche et al. (2020);Experiment 1;Orientation
1;9;68;137;128.078684400156;1.16616009142854;1;31;-8.92131559984432;Fritsche et al. (2020);Experiment 1;Orientation
1;9;69;6;33.4700199291105;1.34951094857115;2;-49;27.4700199291105;Fritsche et al. (2020);Experiment 1;Orientation
1;9;70;59;53.1831507294721;0.699530240000058;2;-53;-5.81684927052791;Fritsche et al. (2020);Experiment 1;Orientation
1;9;71;23;11.6432545419851;0.549500342856845;2;36;-11.3567454580149;Fritsche et al. (2020);Experiment 1;Orientation
1;9;72;118;119.403338792011;1.09950646857124;2;85;1.40333879201053;Fritsche et al. (2020);Experiment 1;Orientation
1;9;73;90;67.907693873493;1.11615890285702;2;28;-22.092306126507;Fritsche et al. (2020);Experiment 1;Orientation
1;9;74;104;111.944737261265;1.09951670857117;1;-14;7.94473726126532;Fritsche et al. (2020);Experiment 1;Orientation
1;9;75;76;67.9249835323358;0.599490925714235;1;28;-8.07501646766417;Fritsche et al. (2020);Experiment 1;Orientation
1;9;76;142;138.026647423239;0.732830720000493;2;-66;-3.9733525767605;Fritsche et al. (2020);Experiment 1;Orientation
1;9;77;52;65.0064937088197;0.882842331428947;1;90;13.0064937088197;Fritsche et al. (2020);Experiment 1;Orientation
1;9;78;117;111.681684619086;0.949482788571913;2;-65;-5.3183153809138;Fritsche et al. (2020);Experiment 1;Orientation
1;9;79;177;117.336458241776;1.14956032000009;2;-60;-59.6635417582242;Fritsche et al. (2020);Experiment 1;Orientation
1;9;80;65;61.3620153814216;0.89954633142861;1;-68;-3.63798461857835;Fritsche et al. (2020);Experiment 1;Orientation
1;9;81;48;52.2200687782513;0.416305371429189;2;17;4.22006877825129;Fritsche et al. (2020);Experiment 1;Orientation
1;9;82;126;121.104730199036;0.999545051427958;2;-78;-4.89526980096359;Fritsche et al. (2020);Experiment 1;Orientation
1;10;1;0;10.0350213922155;0.932521691428519;1;-54;10.0350213922155;Fritsche et al. (2020);Experiment 1;Orientation
1;10;2;151;148.239304194658;1.14955117714271;1;29;-2.76069580534181;Fritsche et al. (2020);Experiment 1;Orientation
1;10;3;92;106.866212176476;1.09949951999988;2;59;14.8662121764762;Fritsche et al. (2020);Experiment 1;Orientation
1;10;4;151;130.822148437884;1.16616813714336;2;-59;-20.177851562116;Fritsche et al. (2020);Experiment 1;Orientation
1;10;5;154;156.046272700448;1.2328345599999;1;-3;2.0462727004475;Fritsche et al. (2020);Experiment 1;Orientation
1;10;6;172;158.300429602335;1.2828617142859;2;-18;-13.6995703976648;Fritsche et al. (2020);Experiment 1;Orientation
1;10;7;96;114.144062703848;0.749553005714006;1;76;18.1440627038475;Fritsche et al. (2020);Experiment 1;Orientation
1;10;8;23;38.4990947654486;0.732865097142167;1;73;15.4990947654486;Fritsche et al. (2020);Experiment 1;Orientation
1;10;9;119;57.3995407785117;1.2328345599999;2;84;-61.6004592214883;Fritsche et al. (2020);Experiment 1;Orientation
1;10;10;152;31.5855192819647;0.599456548570743;1;-33;59.5855192819647;Fritsche et al. (2020);Experiment 1;Orientation
1;10;11;45;52.3673410802565;0.632844434286199;2;-73;7.36734108025651;Fritsche et al. (2020);Experiment 1;Orientation
1;10;12;80;69.437603460241;0.732864365714704;1;-35;-10.562396539759;Fritsche et al. (2020);Experiment 1;Orientation
1;10;13;166;154.618882788687;0.782826057143211;2;-86;-11.3811172113133;Fritsche et al. (2020);Experiment 1;Orientation
1;10;14;141;139.13198211044;1.21623954285678;2;25;-1.86801788956026;Fritsche et al. (2020);Experiment 1;Orientation
1;10;15;117;122.898916136994;0.932860708571752;2;24;5.8989161369942;Fritsche et al. (2020);Experiment 1;Orientation
1;10;16;53;53.4459015542289;0.532814628571941;1;64;0.445901554228918;Fritsche et al. (2020);Experiment 1;Orientation
1;10;17;100;118.405500194115;1.1328343771429;2;-47;18.4055001941152;Fritsche et al. (2020);Experiment 1;Orientation
1;10;18;22;58.5375652902226;1.58287177142847;2;78;36.5375652902226;Fritsche et al. (2020);Experiment 1;Orientation
1;10;19;63;72.3737527639753;1.21617151999999;2;-41;9.37375276397529;Fritsche et al. (2020);Experiment 1;Orientation
1;10;20;117;124.935920066032;0.566163748570943;2;-54;7.93592006603194;Fritsche et al. (2020);Experiment 1;Orientation
1;10;21;80;55.9677862983547;1.24951844571478;2;37;-24.0322137016453;Fritsche et al. (2020);Experiment 1;Orientation
1;10;22;12;64.3152776619893;0.832821028571743;2;68;52.3152776619893;Fritsche et al. (2020);Experiment 1;Orientation
1;10;23;141;124.937813525277;1.09955547428581;1;51;-16.0621864747227;Fritsche et al. (2020);Experiment 1;Orientation
1;10;24;146;130.673309177524;0.682844891428431;1;-5;-15.3266908224755;Fritsche et al. (2020);Experiment 1;Orientation
1;10;25;163;145.991047442814;0.716189257143014;1;-17;-17.0089525571855;Fritsche et al. (2020);Experiment 1;Orientation
1;10;26;29;37.5468449563953;0.899539382857256;2;-46;8.54684495639528;Fritsche et al. (2020);Experiment 1;Orientation
1;10;27;137;149.521407266769;1.26616319999994;2;72;12.5214072667689;Fritsche et al. (2020);Experiment 1;Orientation
1;10;28;78;67.5567870915951;0.76613558857116;1;59;-10.4432129084049;Fritsche et al. (2020);Experiment 1;Orientation
1;10;29;143;127.67659994734;0.832825782857071;1;-65;-15.3234000526599;Fritsche et al. (2020);Experiment 1;Orientation
1;10;30;73;51.9497508144625;0.682868297142704;2;70;-21.0502491855375;Fritsche et al. (2020);Experiment 1;Orientation
1;10;31;146;146.198379173019;0.999535542857302;1;-73;0.198379173019475;Fritsche et al. (2020);Experiment 1;Orientation
1;10;32;125;123.457433470851;0.81619638857137;2;21;-1.54256652914923;Fritsche et al. (2020);Experiment 1;Orientation
1;10;33;163;155.545085163651;1.09953755428614;2;-38;-7.45491483634945;Fritsche et al. (2020);Experiment 1;Orientation
1;10;34;74;64.1413083648741;0.999504091428207;2;89;-9.85869163512587;Fritsche et al. (2020);Experiment 1;Orientation
1;10;35;78;75.2783238735402;1.33287387428572;2;-4;-2.72167612645984;Fritsche et al. (2020);Experiment 1;Orientation
1;10;36;110;121.136139867766;0.999535542857302;1;-32;11.1361398677663;Fritsche et al. (2020);Experiment 1;Orientation
1;10;37;19;22.7360549227974;1.0995357257143;2;-89;3.73605492279739;Fritsche et al. (2020);Experiment 1;Orientation
1;10;38;179;162.866527462965;0.932822308571303;1;20;-16.1334725370351;Fritsche et al. (2020);Experiment 1;Orientation
1;10;39;43;179.846443055511;1.18290285714284;1;-44;-43.153556944489;Fritsche et al. (2020);Experiment 1;Orientation
1;10;40;74;71.6978221721807;1.11620095999933;2;-31;-2.30217782781931;Fritsche et al. (2020);Experiment 1;Orientation
1;10;41;26;33.0819605724138;0.999500799999623;1;48;7.08196057241377;Fritsche et al. (2020);Experiment 1;Orientation
1;10;42;174;160.876671750661;1.08284781714246;2;32;-13.123328249339;Fritsche et al. (2020);Experiment 1;Orientation
1;10;43;149;158.361333310372;0.966191908571091;1;25;9.36133331037217;Fritsche et al. (2020);Experiment 1;Orientation
1;10;44;171;151.398730050377;0.916182308570569;1;-22;-19.6012699496229;Fritsche et al. (2020);Experiment 1;Orientation
1;10;45;0;4.30156038306873;0.899532068571716;2;-9;4.30156038306873;Fritsche et al. (2020);Experiment 1;Orientation
1;10;46;31;24.8971390043965;1.18290980571419;2;-31;-6.10286099560348;Fritsche et al. (2020);Experiment 1;Orientation
1;10;47;36;42.076608367449;0.799501165713991;1;-5;6.07660836744901;Fritsche et al. (2020);Experiment 1;Orientation
1;10;48;29;24.1638055513182;0.582821668571341;1;7;-4.83619444868175;Fritsche et al. (2020);Experiment 1;Orientation
1;10;49;137;53.302267319193;1.54942171428593;1;72;-83.697732680807;Fritsche et al. (2020);Experiment 1;Orientation
1;10;50;136;60.6877781673872;1.31617865142925;1;1;-75.3122218326128;Fritsche et al. (2020);Experiment 1;Orientation
1;10;51;130;62.762251000657;1.3328435200001;1;6;-67.237748999343;Fritsche et al. (2020);Experiment 1;Orientation
1;10;52;84;77.6137840534225;1.14955337142874;2;46;-6.38621594657749;Fritsche et al. (2020);Experiment 1;Orientation
1;10;53;57;54.6811119318864;0.88286939428599;2;27;-2.31888806811363;Fritsche et al. (2020);Experiment 1;Orientation
1;10;54;65;78.9130750962849;0.799540662856998;2;-8;13.9130750962849;Fritsche et al. (2020);Experiment 1;Orientation
1;10;55;120;121.387736622333;1.13282706285645;2;-55;1.38773662233284;Fritsche et al. (2020);Experiment 1;Orientation
1;10;56;147;109.331791508024;0.816176274285681;1;-27;-37.6682084919759;Fritsche et al. (2020);Experiment 1;Orientation
1;10;57;14;14.9484483187019;0.832819199999904;1;-47;0.948448318701921;Fritsche et al. (2020);Experiment 1;Orientation
1;10;58;12;23.8441070592775;0.766193737143112;1;2;11.8441070592775;Fritsche et al. (2020);Experiment 1;Orientation
1;10;59;37;46.6452278210176;1.14949888000046;2;-25;9.64522782101758;Fritsche et al. (2020);Experiment 1;Orientation
1;10;60;85;60.7388879734521;0.966166308571701;2;-48;-24.2611120265479;Fritsche et al. (2020);Experiment 1;Orientation
1;10;61;150;64.5151608218909;1.13283839999986;2;-65;-85.4848391781091;Fritsche et al. (2020);Experiment 1;Orientation
1;10;62;61;66.7868219603594;1.34951716571413;1;89;5.78682196035939;Fritsche et al. (2020);Experiment 1;Orientation
1;10;63;60;78.9108662037553;1.24953270857077;2;1;18.9108662037553;Fritsche et al. (2020);Experiment 1;Orientation
1;10;64;170;163.835756014454;0.816226377142812;2;70;-6.16424398554574;Fritsche et al. (2020);Experiment 1;Orientation
1;10;65;13;14.2396149534847;1.31620644571467;1;-23;1.23961495348472;Fritsche et al. (2020);Experiment 1;Orientation
1;10;66;132;142.13339552705;0.932737828571589;1;61;10.1333955270504;Fritsche et al. (2020);Experiment 1;Orientation
1;10;67;150;157.397779074442;1.1995220114286;2;-18;7.3977790744425;Fritsche et al. (2020);Experiment 1;Orientation
1;10;68;12;30.3728892360961;1.16620690285708;2;-42;18.3728892360961;Fritsche et al. (2020);Experiment 1;Orientation
1;10;69;113;106.394479222865;0.89943771428625;1;79;-6.60552077713515;Fritsche et al. (2020);Experiment 1;Orientation
1;10;70;78;62.829944507244;1.41617590857186;2;35;-15.170055492756;Fritsche et al. (2020);Experiment 1;Orientation
1;10;71;89;94.4915308379069;1.18287067428537;1;-11;5.49153083790694;Fritsche et al. (2020);Experiment 1;Orientation
1;10;72;46;56.738388295559;1.43282029714283;2;43;10.738388295559;Fritsche et al. (2020);Experiment 1;Orientation
1;10;73;122;128.060030801743;0.999495680000109;1;-76;6.06003080174293;Fritsche et al. (2020);Experiment 1;Orientation
1;10;74;154;132.300040073968;0.749535817142714;1;-32;-21.6999599260323;Fritsche et al. (2020);Experiment 1;Orientation
1;10;75;52;43.9064197380698;1.09950793142889;1;-78;-8.09358026193017;Fritsche et al. (2020);Experiment 1;Orientation
1;10;76;145;131.901354708575;1.03286930285776;1;87;-13.0986452914254;Fritsche et al. (2020);Experiment 1;Orientation
1;10;77;49;46.4627539368076;1.01622528000007;1;-84;-2.53724606319244;Fritsche et al. (2020);Experiment 1;Orientation
1;10;78;62;47.2902378496637;1.11621595428551;1;-13;-14.7097621503363;Fritsche et al. (2020);Experiment 1;Orientation
1;10;79;50;47.1852403751183;0.799494217142637;1;12;-2.81475962488165;Fritsche et al. (2020);Experiment 1;Orientation
1;10;80;86;82.1465881033566;0.916157805713738;2;-36;-3.85341189664337;Fritsche et al. (2020);Experiment 1;Orientation
1;10;81;168;140.458909542386;1.54955300571419;1;-82;-27.541090457614;Fritsche et al. (2020);Experiment 1;Orientation
1;10;82;112;110.770833343597;1.03284150857144;1;56;-1.22916665640319;Fritsche et al. (2020);Experiment 1;Orientation
2;1;1;167;160.650817542451;1.03256295337314;1;NaN;-6.34918245754861;Fritsche et al. (2020);Experiment 1;Orientation
2;1;2;103;112.179523119596;2.18285086299738;1;64;9.1795231195957;Fritsche et al. (2020);Experiment 1;Orientation
2;1;3;112;105.88775948246;2.53283852009508;1;-9;-6.11224051754039;Fritsche et al. (2020);Experiment 1;Orientation
2;1;4;135;45.3815216384012;1.49954267261342;2;-23;-89.6184783615988;Fritsche et al. (2020);Experiment 1;Orientation
2;1;5;30;24.0994979773593;3.43285077156861;2;-75;-5.90050202264074;Fritsche et al. (2020);Experiment 1;Orientation
2;1;6;164;152.716173225372;2.46616929341894;1;46;-11.283826774628;Fritsche et al. (2020);Experiment 1;Orientation
2;1;7;131;128.137643875409;3.78288085167856;2;33;-2.86235612459097;Fritsche et al. (2020);Experiment 1;Orientation
2;1;8;6;12.6646242916802;2.2495486154919;1;-55;6.66462429168018;Fritsche et al. (2020);Experiment 1;Orientation
2;1;9;45;120.40663750638;1.86622853935023;2;-39;75.4066375063797;Fritsche et al. (2020);Experiment 1;Orientation
2;1;10;114;122.470584170497;2.03296962914624;1;-69;8.47058417049689;Fritsche et al. (2020);Experiment 1;Orientation
2;1;11;63;55.1692240122095;1.66618501919106;2;51;-7.83077598779052;Fritsche et al. (2020);Experiment 1;Orientation
2;1;12;53;52.6218806052632;1.38282636005079;1;10;-0.378119394736785;Fritsche et al. (2020);Experiment 1;Orientation
2;1;13;101;108.891274287652;3.13284583440759;2;-48;7.8912742876519;Fritsche et al. (2020);Experiment 1;Orientation
2;1;14;147;128.032536529104;2.41618986492313;2;-46;-18.9674634708958;Fritsche et al. (2020);Experiment 1;Orientation
2;1;15;59;65.8711887361344;1.21618291632603;2;88;6.8711887361344;Fritsche et al. (2020);Experiment 1;Orientation
2;1;16;176;8.67256296045912;2.21617743059187;1;63;12.6725629604591;Fritsche et al. (2020);Experiment 1;Orientation
2;1;17;111;107.123151828837;1.73283852009513;2;65;-3.87684817116298;Fritsche et al. (2020);Experiment 1;Orientation
2;1;18;126;120.057034964521;3.33282791434203;1;-15;-5.94296503547879;Fritsche et al. (2020);Experiment 1;Orientation
2;1;19;25;22.3974881325752;1.69953133542867;2;-79;-2.60251186742479;Fritsche et al. (2020);Experiment 1;Orientation
2;1;20;75;2.19656762255569;1.78284062296007;2;-50;-72.8034323774443;Fritsche et al. (2020);Experiment 1;Orientation
2;1;21;10;21.8276891530305;1.58285817731007;2;65;11.8276891530305;Fritsche et al. (2020);Experiment 1;Orientation
2;1;22;41;27.0842638822267;2.18285232586004;2;-31;-13.9157361177733;Fritsche et al. (2020);Experiment 1;Orientation
2;1;23;90;101.103945669717;2.28284044010206;2;-49;11.1039456697166;Fritsche et al. (2020);Experiment 1;Orientation
2;1;24;101;110.469303203769;1.68287152593007;2;-11;9.46930320376865;Fritsche et al. (2020);Experiment 1;Orientation
2;1;25;61;80.8848698939405;2.14961279858403;1;40;19.8848698939405;Fritsche et al. (2020);Experiment 1;Orientation
2;1;26;118;119.007736648481;2.03284565154968;2;-57;1.00773664848134;Fritsche et al. (2020);Experiment 1;Orientation
2;1;27;141;134.877531074788;1.86621829931255;2;-23;-6.12246892521176;Fritsche et al. (2020);Experiment 1;Orientation
2;1;28;106;117.989253991337;1.89950244389456;2;35;11.9892539913373;Fritsche et al. (2020);Experiment 1;Orientation
2;1;29;85;74.5941514477458;2.8662080592751;1;21;-10.4058485522542;Fritsche et al. (2020);Experiment 1;Orientation
2;1;30;64;58.2993007508687;2.59950847820255;2;21;-5.70069924913128;Fritsche et al. (2020);Experiment 1;Orientation
2;1;31;119;116.830019368038;1.19948031809963;2;-55;-2.1699806319622;Fritsche et al. (2020);Experiment 1;Orientation
2;1;32;8;10.9598506008789;2.03281932002506;1;-69;2.95985060087889;Fritsche et al. (2020);Experiment 1;Orientation
2;1;33;5;21.3104626476668;2.28282215432091;1;3;16.3104626476668;Fritsche et al. (2020);Experiment 1;Orientation
2;1;34;170;160.11462150574;1.86616636769418;1;15;-9.88537849426027;Fritsche et al. (2020);Experiment 1;Orientation
2;1;35;36;23.6337611217451;2.03290709177463;1;-46;-12.3662388782549;Fritsche et al. (2020);Experiment 1;Orientation
2;1;36;95;100.337476351402;3.06619160207219;2;-59;5.33747635140189;Fritsche et al. (2020);Experiment 1;Orientation
2;1;37;132;155.176274764294;2.1328396172421;1;-37;23.1762747642936;Fritsche et al. (2020);Experiment 1;Orientation
2;1;38;87;77.3248412598559;1.78281392571944;1;45;-9.67515874014408;Fritsche et al. (2020);Experiment 1;Orientation
2;1;39;84;70.4413556437025;1.53287180021675;2;3;-13.5586443562975;Fritsche et al. (2020);Experiment 1;Orientation
2;1;40;35;21.0746936858448;1.71613811616226;1;49;-13.9253063141552;Fritsche et al. (2020);Experiment 1;Orientation
2;1;41;45;33.7495510307397;1.58283330864742;1;-10;-11.2504489692603;Fritsche et al. (2020);Experiment 1;Orientation
2;1;42;90;99.4273466944315;2.71617944202762;1;-45;9.42734669443146;Fritsche et al. (2020);Experiment 1;Orientation
2;1;43;165;162.344026637063;2.04951131249845;1;-75;-2.65597336293746;Fritsche et al. (2020);Experiment 1;Orientation
2;1;44;156;147.314134190186;1.76618410490187;1;9;-8.68586580981372;Fritsche et al. (2020);Experiment 1;Orientation
2;1;45;81;77.3829770181964;2.36617386486432;1;75;-3.61702298180364;Fritsche et al. (2020);Experiment 1;Orientation
