obs;block;trial;theta;resp;rt;cond;delta;error;study;experiment;stimulus
1;1;1;177;1.30425014527275;1.59219821714305;2;NaN;4.30425014527276;Fritsche et al. (2020);Experiment 3;Orientation
1;1;2;176;174.286111849025;2.56775716571428;1;1;-1.71388815097495;Fritsche et al. (2020);Experiment 3;Orientation
1;1;3;83;84.1940917133077;2.06772736000039;1;-87;1.19409171330773;Fritsche et al. (2020);Experiment 3;Orientation
1;1;4;129;124.896570911779;1.16767926857119;2;-46;-4.10342908822116;Fritsche et al. (2020);Experiment 3;Orientation
1;1;5;42;33.3293679109221;1.13459785142913;1;87;-8.67063208907788;Fritsche et al. (2020);Experiment 3;Orientation
1;1;6;19;25.4530821596359;1.25109394285664;1;23;6.45308215963594;Fritsche et al. (2020);Experiment 3;Orientation
1;1;7;165;150.973804521431;1.63429668571371;2;34;-14.026195478569;Fritsche et al. (2020);Experiment 3;Orientation
1;1;8;144;149.448483733943;2.10105014857163;1;21;5.44848373394308;Fritsche et al. (2020);Experiment 3;Orientation
1;1;9;133;125.436927281964;1.53439890285699;1;11;-7.56307271803622;Fritsche et al. (2020);Experiment 3;Orientation
1;1;10;103;101.838849920342;2.06766226285708;2;30;-1.16115007965755;Fritsche et al. (2020);Experiment 3;Orientation
1;1;11;145;157.312446406289;1.50098651428561;2;-42;12.3124464062891;Fritsche et al. (2020);Experiment 3;Orientation
1;1;12;146;170.200818860675;1.63432667428606;2;-1;24.2008188606752;Fritsche et al. (2020);Experiment 3;Orientation
1;1;13;78;67.7272248019721;1.05111149714321;1;68;-10.2727751980279;Fritsche et al. (2020);Experiment 3;Orientation
1;1;14;121;111.363585152184;1.21782015999997;1;-43;-9.63641484781628;Fritsche et al. (2020);Experiment 3;Orientation
1;1;15;61;48.2991966745547;1.7677856914288;1;60;-12.7008033254453;Fritsche et al. (2020);Experiment 3;Orientation
1;1;16;80;60.4876118817136;2.23436470857087;1;-19;-19.5123881182864;Fritsche et al. (2020);Experiment 3;Orientation
1;1;17;55;21.7497153629886;1.51772854857154;2;25;-33.2502846370114;Fritsche et al. (2020);Experiment 3;Orientation
1;1;18;69;65.7701510891264;1.0344199314286;1;-14;-3.22984891087357;Fritsche et al. (2020);Experiment 3;Orientation
1;1;19;105;106.353706028186;2.01779858285772;1;-36;1.35370602818629;Fritsche et al. (2020);Experiment 3;Orientation
1;1;20;0;176.500127707606;1.71784155428577;2;-75;-3.49987229239358;Fritsche et al. (2020);Experiment 3;Orientation
1;1;21;79;75.8968287265881;2.41765339428639;2;-79;-3.10317127341192;Fritsche et al. (2020);Experiment 3;Orientation
1;1;22;68;62.115036955609;2.03455268571452;1;11;-5.88496304439098;Fritsche et al. (2020);Experiment 3;Orientation
1;1;23;178;179.271406030816;1.80104557714276;1;70;1.27140603081577;Fritsche et al. (2020);Experiment 3;Orientation
1;1;24;3;9.90088965457248;1.63443126857146;2;-5;6.90088965457248;Fritsche et al. (2020);Experiment 3;Orientation
1;1;25;10;6.70638559671686;2.03441883428604;2;-7;-3.29361440328314;Fritsche et al. (2020);Experiment 3;Orientation
1;1;26;165;160.664210960743;1.35110180571428;1;25;-4.33578903925729;Fritsche et al. (2020);Experiment 3;Orientation
1;1;27;98;103.564158334982;1.93437366857142;1;67;5.56415833498205;Fritsche et al. (2020);Experiment 3;Orientation
1;1;28;127;121.926832720797;2.35113106285735;1;-29;-5.07316727920251;Fritsche et al. (2020);Experiment 3;Orientation
1;1;29;106;112.629281903277;2.00111250285681;1;21;6.62928190327679;Fritsche et al. (2020);Experiment 3;Orientation
1;1;30;165;156.191125798161;2.36772096000004;1;-59;-8.80887420183859;Fritsche et al. (2020);Experiment 3;Orientation
1;1;31;83;78.1111356394733;2.01777993142878;2;82;-4.88886436052665;Fritsche et al. (2020);Experiment 3;Orientation
1;1;32;73;78.6304127214003;1.18451163428563;1;10;5.63041272140028;Fritsche et al. (2020);Experiment 3;Orientation
1;1;33;41;68.7252373537105;1.76774143999955;2;32;27.7252373537105;Fritsche et al. (2020);Experiment 3;Orientation
1;1;34;47;36.4840878476627;2.03437494857098;1;-6;-10.5159121523373;Fritsche et al. (2020);Experiment 3;Orientation
1;1;35;128;138.135277209893;1.9676075885709;2;-81;10.135277209893;Fritsche et al. (2020);Experiment 3;Orientation
1;1;36;13;13.5113101843035;2.28411209142814;2;-65;0.511310184303483;Fritsche et al. (2020);Experiment 3;Orientation
1;1;37;124;119.13963211285;2.50107794285759;2;69;-4.86036788714991;Fritsche et al. (2020);Experiment 3;Orientation
1;1;38;58;40.2866989296552;2.50107355428554;1;66;-17.7133010703448;Fritsche et al. (2020);Experiment 3;Orientation
1;1;39;91;95.5876908303631;2.81771264000054;1;-33;4.5876908303631;Fritsche et al. (2020);Experiment 3;Orientation
1;1;40;78;80.6526021486381;1.98430646857105;2;13;2.65260214863814;Fritsche et al. (2020);Experiment 3;Orientation
1;1;41;36;19.5103054306784;2.71762249142921;2;42;-16.4896945693216;Fritsche et al. (2020);Experiment 3;Orientation
1;1;42;173;168.375438725636;2.9677041371433;1;43;-4.6245612743636;Fritsche et al. (2020);Experiment 3;Orientation
1;1;43;115;107.428280234505;1.60106422857098;1;58;-7.57171976549533;Fritsche et al. (2020);Experiment 3;Orientation
1;1;44;142;169.779176877355;2.23426084571383;2;-27;27.7791768773553;Fritsche et al. (2020);Experiment 3;Orientation
1;1;45;126;112.301626529407;2.23424694857113;2;16;-13.6983734705929;Fritsche et al. (2020);Experiment 3;Orientation
1;1;46;37;27.1345423783875;2.21778614857158;1;89;-9.8654576216125;Fritsche et al. (2020);Experiment 3;Orientation
1;1;47;10;13.4594055693859;2.41758537142778;2;27;3.45940556938588;Fritsche et al. (2020);Experiment 3;Orientation
1;1;48;126;126.305705532544;2.98421942857203;2;64;0.305705532543783;Fritsche et al. (2020);Experiment 3;Orientation
1;1;49;67;79.7780813017525;2.55097417142861;2;59;12.7780813017525;Fritsche et al. (2020);Experiment 3;Orientation
1;1;50;125;115.455366883839;1.76780361142846;2;-58;-9.54463311616061;Fritsche et al. (2020);Experiment 3;Orientation
1;1;51;66;74.2585394459587;2.01768960000027;2;59;8.25853944595873;Fritsche et al. (2020);Experiment 3;Orientation
1;1;52;172;164.371410836394;1.76731209142872;1;74;-7.62858916360608;Fritsche et al. (2020);Experiment 3;Orientation
1;1;53;62;54.9083965821501;1.28444489142839;1;-70;-7.0916034178499;Fritsche et al. (2020);Experiment 3;Orientation
1;1;54;160;165.894315895812;1.30107867428615;2;82;5.8943158958125;Fritsche et al. (2020);Experiment 3;Orientation
1;1;55;47;35.6848958345169;2.2177375085721;1;-67;-11.3151041654831;Fritsche et al. (2020);Experiment 3;Orientation
1;1;56;50;20.2589087403506;1.23434934857141;2;-3;-29.7410912596494;Fritsche et al. (2020);Experiment 3;Orientation
1;1;57;83;103.697480534869;2.41762377142913;2;-33;20.6974805348687;Fritsche et al. (2020);Experiment 3;Orientation
1;1;58;5;16.2039122924079;1.31770477714235;2;78;11.2039122924079;Fritsche et al. (2020);Experiment 3;Orientation
1;1;59;166;170.904064401393;2.40100315428572;2;19;4.9040644013935;Fritsche et al. (2020);Experiment 3;Orientation
1;1;60;123;119.751983911708;2.18437961142899;1;43;-3.2480160882922;Fritsche et al. (2020);Experiment 3;Orientation
1;1;61;62;66.9319439092767;1.96776484571456;2;61;4.93194390927667;Fritsche et al. (2020);Experiment 3;Orientation
1;1;62;152;159.812540828195;2.35107583999979;1;-90;7.81254082819527;Fritsche et al. (2020);Experiment 3;Orientation
1;1;63;28;27.9696593454291;1.0510581028575;2;-56;-0.0303406545709208;Fritsche et al. (2020);Experiment 3;Orientation
1;1;64;86;81.0462502170828;1.90135113142878;1;-58;-4.95374978291723;Fritsche et al. (2020);Experiment 3;Orientation
1;1;65;11;25.7909734350561;1.75105353142771;1;75;14.7909734350561;Fritsche et al. (2020);Experiment 3;Orientation
1;1;66;111;99.846574971688;1.36787565714349;2;80;-11.153425028312;Fritsche et al. (2020);Experiment 3;Orientation
1;1;67;39;37.5953185839435;1.38438473142833;1;72;-1.40468141605646;Fritsche et al. (2020);Experiment 3;Orientation
1;1;68;115;110.590871925403;1.05116525714311;1;-76;-4.40912807459726;Fritsche et al. (2020);Experiment 3;Orientation
1;1;69;59;44.7683143941819;1.70107318857208;2;56;-14.2316856058181;Fritsche et al. (2020);Experiment 3;Orientation
1;1;70;25;0.758411988031341;1.68426898285725;2;34;-24.2415880119687;Fritsche et al. (2020);Experiment 3;Orientation
1;1;71;73;62.9724195690108;1.83445247999953;1;-48;-10.0275804309892;Fritsche et al. (2020);Experiment 3;Orientation
1;1;72;122;103.95449609256;2.35096649142815;2;-49;-18.0455039074404;Fritsche et al. (2020);Experiment 3;Orientation
1;1;73;130;22.1728658346188;1.6176844799993;1;-8;72.1728658346188;Fritsche et al. (2020);Experiment 3;Orientation
1;1;74;7;2.30907786866665;1.5345375085717;2;-57;-4.69092213133335;Fritsche et al. (2020);Experiment 3;Orientation
1;1;75;178;177.671885089786;2.05098459428609;2;9;-0.328114910214254;Fritsche et al. (2020);Experiment 3;Orientation
1;1;76;31;11.4736023904688;1.93424420571409;2;-33;-19.5263976095312;Fritsche et al. (2020);Experiment 3;Orientation
1;1;77;12;15.2511898671552;1.70095725714327;2;19;3.25118986715523;Fritsche et al. (2020);Experiment 3;Orientation
1;1;78;21;18.3596603386428;1.63438043428596;1;-9;-2.64033966135722;Fritsche et al. (2020);Experiment 3;Orientation
1;1;79;27;21.7147692803653;1.70119204571438;1;-6;-5.28523071963465;Fritsche et al. (2020);Experiment 3;Orientation
1;1;80;119;105.305894315633;1.40108763428543;1;88;-13.6941056843673;Fritsche et al. (2020);Experiment 3;Orientation
1;1;81;1;167.582780302419;1.26757046857165;2;-62;-13.417219697581;Fritsche et al. (2020);Experiment 3;Orientation
1;1;82;78;66.0304515293468;1.23439140571372;2;-77;-11.9695484706532;Fritsche et al. (2020);Experiment 3;Orientation
1;1;83;102;101.575454563691;2.53442816000006;1;-24;-0.424545436309444;Fritsche et al. (2020);Experiment 3;Orientation
1;1;84;80;70.6279169164754;1.33435977142926;1;22;-9.37208308352459;Fritsche et al. (2020);Experiment 3;Orientation
1;1;85;111;102.988355632955;2.63442432000011;2;-31;-8.01164436704498;Fritsche et al. (2020);Experiment 3;Orientation
1;1;86;173;169.429190887628;2.21769033142846;1;-62;-3.57080911237176;Fritsche et al. (2020);Experiment 3;Orientation
1;1;87;173;168.607645688714;1.46790546285683;1;0;-4.39235431128606;Fritsche et al. (2020);Experiment 3;Orientation
1;1;88;4;6.94798130059621;1.65110564571387;1;-11;2.94798130059621;Fritsche et al. (2020);Experiment 3;Orientation
1;1;89;149;138.820657333767;1.51781595428565;1;35;-10.1793426662333;Fritsche et al. (2020);Experiment 3;Orientation
1;1;90;144;118.004020117506;2.26775259428541;1;5;-25.9959798824939;Fritsche et al. (2020);Experiment 3;Orientation
1;1;91;164;159.583977484682;1.90101357714229;2;-20;-4.41602251531833;Fritsche et al. (2020);Experiment 3;Orientation
1;1;92;152;151.621216224687;2.86767652571416;2;12;-0.378783775312826;Fritsche et al. (2020);Experiment 3;Orientation
1;1;93;138;144.938028213135;2.51761444571457;2;14;6.93802821313545;Fritsche et al. (2020);Experiment 3;Orientation
1;1;94;148;170.021694433273;1.08452242285694;1;-10;22.0216944332728;Fritsche et al. (2020);Experiment 3;Orientation
1;1;95;56;47.7394456904277;1.71772525714277;1;-88;-8.26055430957233;Fritsche et al. (2020);Experiment 3;Orientation
1;1;96;158;161.208313715082;2.5344610742859;2;78;3.20831371508177;Fritsche et al. (2020);Experiment 3;Orientation
1;1;97;159;170.022685733244;2.35097965714249;2;-1;11.0226857332439;Fritsche et al. (2020);Experiment 3;Orientation
1;1;98;158;170.372519056808;1.06768639999973;1;1;12.3725190568076;Fritsche et al. (2020);Experiment 3;Orientation
1;1;99;156;157.649624691252;2.43437056000039;2;2;1.64962469125194;Fritsche et al. (2020);Experiment 3;Orientation
1;1;100;144;167.468387674623;1.91771465142847;2;12;23.4683876746232;Fritsche et al. (2020);Experiment 3;Orientation
1;1;101;139;167.390848610105;1.96769865142869;2;5;28.3908486101054;Fritsche et al. (2020);Experiment 3;Orientation
1;2;1;131;116.553678946008;2.06781403428613;1;8;-14.4463210539917;Fritsche et al. (2020);Experiment 3;Orientation
1;2;2;85;83.5564810219629;1.90104941714344;1;46;-1.44351897803713;Fritsche et al. (2020);Experiment 3;Orientation
1;2;3;98;94.8106052300948;1.3344208457147;2;-13;-3.18939476990518;Fritsche et al. (2020);Experiment 3;Orientation
1;2;4;125;145.036216294846;1.45104786285719;2;-27;20.0362162948455;Fritsche et al. (2020);Experiment 3;Orientation
1;2;5;142;155.26661314977;1.1677469257138;1;-17;13.2666131497699;Fritsche et al. (2020);Experiment 3;Orientation
1;2;6;16;27.8421465879879;2.28430079999998;2;-54;11.8421465879879;Fritsche et al. (2020);Experiment 3;Orientation
1;2;7;155;166.269864033261;1.33450422857095;1;41;11.2698640332612;Fritsche et al. (2020);Experiment 3;Orientation
1;2;8;168;160.412894088406;1.53432758857161;2;-13;-7.58710591159388;Fritsche et al. (2020);Experiment 3;Orientation
1;2;9;44;46.9984206131642;1.15111277714277;1;-56;2.99842061316424;Fritsche et al. (2020);Experiment 3;Orientation
1;2;10;70;66.0697683995996;1.1344822857136;1;-26;-3.93023160040039;Fritsche et al. (2020);Experiment 3;Orientation
1;2;11;19;21.5839478719834;1.1844699428575;1;51;2.58394787198336;Fritsche et al. (2020);Experiment 3;Orientation
1;2;12;46;18.8882751559696;1.88455168000019;2;-27;-27.1117248440304;Fritsche et al. (2020);Experiment 3;Orientation
1;2;13;62;63.1541179300721;1.23427730285675;2;-16;1.15411793007211;Fritsche et al. (2020);Experiment 3;Orientation
1;2;14;106;106.070059111617;1.00117028571458;1;-44;0.0700591116169562;Fritsche et al. (2020);Experiment 3;Orientation
1;2;15;161;163.983533086623;2.61769435428505;2;-55;2.98353308662348;Fritsche et al. (2020);Experiment 3;Orientation
1;2;16;4;16.2091509886911;1.20102180571484;2;-23;12.2091509886911;Fritsche et al. (2020);Experiment 3;Orientation
1;2;17;157;160.837575025069;1.96762075428614;2;27;3.8375750250689;Fritsche et al. (2020);Experiment 3;Orientation
1;2;18;22;20.548472578428;1.40095451428533;2;-45;-1.45152742157195;Fritsche et al. (2020);Experiment 3;Orientation
1;2;19;106;105.945327721749;1.3676767085708;2;-84;-0.0546722782510187;Fritsche et al. (2020);Experiment 3;Orientation
1;2;20;95;96.3971687294898;1.83434605714228;2;11;1.39716872948982;Fritsche et al. (2020);Experiment 3;Orientation
1;2;21;156;152.350393249455;2.58437412571402;1;-61;-3.64960675054488;Fritsche et al. (2020);Experiment 3;Orientation
1;2;22;179;158.357940090808;NaN;1;-23;-20.6420599091919;Fritsche et al. (2020);Experiment 3;Orientation
1;2;23;16;27.7077326318889;1.81765632000042;2;-17;11.7077326318889;Fritsche et al. (2020);Experiment 3;Orientation
1;2;24;41;22.2414274072927;2.66761289142778;2;-25;-18.7585725927073;Fritsche et al. (2020);Experiment 3;Orientation
1;2;25;118;110.419242431736;2.10112987428511;2;-77;-7.58075756826449;Fritsche et al. (2020);Experiment 3;Orientation
1;2;26;93;96.5491424948435;2.73439158857127;1;25;3.54914249484354;Fritsche et al. (2020);Experiment 3;Orientation
1;2;27;15;16.3443599934216;2.51764882285715;2;78;1.34435999342156;Fritsche et al. (2020);Experiment 3;Orientation
1;2;28;5;11.9501908661755;2.33431039999959;2;10;6.95019086617555;Fritsche et al. (2020);Experiment 3;Orientation
1;2;29;83;68.0269286861312;NaN;1;-78;-14.9730713138688;Fritsche et al. (2020);Experiment 3;Orientation
1;2;30;61;60.8297845244926;1.25122413714325;1;22;-0.170215475507355;Fritsche et al. (2020);Experiment 3;Orientation
1;2;31;161;164.652203262517;2.2510639542852;1;80;3.65220326251699;Fritsche et al. (2020);Experiment 3;Orientation
1;2;32;104;95.3075602921198;1.06778660571399;1;57;-8.6924397078802;Fritsche et al. (2020);Experiment 3;Orientation
1;2;33;22;25.3062755786323;2.3175987199993;1;82;3.30627557863234;Fritsche et al. (2020);Experiment 3;Orientation
1;2;34;132;119.448568911274;1.60119003428554;1;70;-12.5514310887261;Fritsche et al. (2020);Experiment 3;Orientation
1;2;35;137;129.000998381167;2.23422573714288;2;-5;-7.99900161883309;Fritsche et al. (2020);Experiment 3;Orientation
1;2;36;104;99.1575383459197;1.15095259428563;2;33;-4.8424616540803;Fritsche et al. (2020);Experiment 3;Orientation
1;2;37;122;129.925945133268;2.43438226285707;2;-18;7.92594513326762;Fritsche et al. (2020);Experiment 3;Orientation
1;2;38;69;77.0000329072387;2.48432822857194;2;53;8.00003290723866;Fritsche et al. (2020);Experiment 3;Orientation
1;2;39;50;39.3634666816349;1.50119570285642;1;19;-10.6365333183651;Fritsche et al. (2020);Experiment 3;Orientation
1;2;40;109;103.657127511589;2.46769590857184;1;-59;-5.34287248841088;Fritsche et al. (2020);Experiment 3;Orientation
1;2;41;43;40.2603311182813;1.88440173714298;1;66;-2.73966888171865;Fritsche et al. (2020);Experiment 3;Orientation
1;2;42;158;168.785297922086;2.35098112000014;2;65;10.7852979220861;Fritsche et al. (2020);Experiment 3;Orientation
1;2;43;165;176.966903757312;1.66787986285726;2;-7;11.9669037573124;Fritsche et al. (2020);Experiment 3;Orientation
1;2;44;98;103.098037783533;1.85110491428532;1;67;5.09803778353347;Fritsche et al. (2020);Experiment 3;Orientation
1;2;45;41;13.2228681579769;1.83436873142909;2;57;-27.7771318420231;Fritsche et al. (2020);Experiment 3;Orientation
1;2;46;138;161.03821045224;2.31769343999986;1;83;23.0382104522402;Fritsche et al. (2020);Experiment 3;Orientation
1;2;47;29;21.0798362092105;2.10101211428628;2;-71;-7.92016379078953;Fritsche et al. (2020);Experiment 3;Orientation
1;2;48;43;16.2728673695423;2.30107282285644;2;-14;-26.7271326304577;Fritsche et al. (2020);Experiment 3;Orientation
1;2;49;119;110.94703352618;2.4176614400003;2;-76;-8.05296647381985;Fritsche et al. (2020);Experiment 3;Orientation
1;2;50;109;106.045409006122;1.30115145142827;1;10;-2.95459099387813;Fritsche et al. (2020);Experiment 3;Orientation
1;2;51;122;134.371580700365;2.58433865142797;2;-13;12.3715807003653;Fritsche et al. (2020);Experiment 3;Orientation
1;2;52;116;144.678653148636;1.88442294857123;2;6;28.6786531486362;Fritsche et al. (2020);Experiment 3;Orientation
1;2;53;111;103.473298960942;1.43441846857149;2;5;-7.52670103905754;Fritsche et al. (2020);Experiment 3;Orientation
1;2;54;21;19.1960650343981;2.41770313142933;1;90;-1.80393496560191;Fritsche et al. (2020);Experiment 3;Orientation
1;2;55;23;18.6577021580061;2.95110180571464;1;-2;-4.34229784199385;Fritsche et al. (2020);Experiment 3;Orientation
1;2;56;41;38.9091300646803;2.08441124571436;1;-18;-2.09086993531967;Fritsche et al. (2020);Experiment 3;Orientation
1;2;57;3;7.44005142455823;2.15094271999988;2;38;4.44005142455823;Fritsche et al. (2020);Experiment 3;Orientation
1;2;58;64;59.7233047858222;2.88418852571431;2;-61;-4.27669521417782;Fritsche et al. (2020);Experiment 3;Orientation
1;2;59;135;151.962385074847;2.1843763199995;1;-71;16.9623850748472;Fritsche et al. (2020);Experiment 3;Orientation
1;2;60;22;9.63379641284571;1.55116836571415;2;-67;-12.3662035871543;Fritsche et al. (2020);Experiment 3;Orientation
1;2;61;61;63.6839209375891;2.05105444571473;1;-39;2.68392093758907;Fritsche et al. (2020);Experiment 3;Orientation
1;2;62;163;153.391152089745;1.25122706285765;1;78;-9.60884791025487;Fritsche et al. (2020);Experiment 3;Orientation
1;2;63;153;164.872293253972;1.68432383999971;2;10;11.8722932539722;Fritsche et al. (2020);Experiment 3;Orientation
1;2;64;179;1.77158873102087;1.48432237714314;2;-26;2.77158873102087;Fritsche et al. (2020);Experiment 3;Orientation
1;2;65;48;8.73602531644183;2.28444379428493;1;-49;-39.2639746835582;Fritsche et al. (2020);Experiment 3;Orientation
1;2;66;125;156.502224536642;1.8343343542856;2;-77;31.5022245366424;Fritsche et al. (2020);Experiment 3;Orientation
1;2;67;59;56.4877000003536;1.5343787885713;2;66;-2.51229999964644;Fritsche et al. (2020);Experiment 3;Orientation
1;2;68;163;167.076872123645;2.00094061714299;2;76;4.07687212364482;Fritsche et al. (2020);Experiment 3;Orientation
1;2;69;180;176.535588762085;2.11771574857175;1;-17;-3.46441123791527;Fritsche et al. (2020);Experiment 3;Orientation
1;2;70;90;93.4544120607428;2.41771812571369;2;90;3.45441206074278;Fritsche et al. (2020);Experiment 3;Orientation
1;2;71;112;103.133181173215;1.90102674285754;2;-22;-8.86681882678505;Fritsche et al. (2020);Experiment 3;Orientation
1;2;72;10;1.4315432844888;2.70098651428543;1;-78;-8.5684567155112;Fritsche et al. (2020);Experiment 3;Orientation
1;2;73;36;24.8311618851501;2.16769682285667;1;-26;-11.1688381148499;Fritsche et al. (2020);Experiment 3;Orientation
1;2;74;11;3.87431362648833;1.95112630857147;2;25;-7.12568637351167;Fritsche et al. (2020);Experiment 3;Orientation
1;2;75;8;3.98923133768565;0.98458367999956;1;3;-4.01076866231435;Fritsche et al. (2020);Experiment 3;Orientation
1;2;76;146;159.569831953113;1.18432767999911;2;42;13.5698319531134;Fritsche et al. (2020);Experiment 3;Orientation
1;2;77;70;71.9346167278386;2.1509449142859;2;76;1.93461672783864;Fritsche et al. (2020);Experiment 3;Orientation
1;2;78;67;57.5613574200881;2.11782802285688;1;3;-9.43864257991188;Fritsche et al. (2020);Experiment 3;Orientation
1;2;79;164;173.633911043453;2.08440320000045;1;83;9.63391104345277;Fritsche et al. (2020);Experiment 3;Orientation
1;2;80;143;171.25989109407;2.61774555428565;1;21;28.2598910940696;Fritsche et al. (2020);Experiment 3;Orientation
1;2;81;1;171.22538779815;NaN;1;-38;-9.77461220184972;Fritsche et al. (2020);Experiment 3;Orientation
1;2;82;121;115.613015508119;1.71777243428642;1;60;-5.38698449188054;Fritsche et al. (2020);Experiment 3;Orientation
1;2;83;32;18.2549986087642;1.46779392000008;1;89;-13.7450013912358;Fritsche et al. (2020);Experiment 3;Orientation
1;2;84;71;70.1353048001242;2.01765778285699;2;-39;-0.864695199875825;Fritsche et al. (2020);Experiment 3;Orientation
1;2;85;13;16.9387606488885;2.53425700571461;2;58;3.93876064888848;Fritsche et al. (2020);Experiment 3;Orientation
1;2;86;95;97.9771078230938;2.31774756571394;1;-82;2.9771078230938;Fritsche et al. (2020);Experiment 3;Orientation
1;2;87;35;14.4955689805343;2.35090249142831;2;60;-20.5044310194657;Fritsche et al. (2020);Experiment 3;Orientation
1;2;88;57;56.0056605470764;2.41767460571464;1;-22;-0.994339452923576;Fritsche et al. (2020);Experiment 3;Orientation
1;2;89;174;178.106304556978;1.1844245942857;2;63;4.10630455697782;Fritsche et al. (2020);Experiment 3;Orientation
1;2;90;174;172.331531036728;2.05098934857142;1;0;-1.66846896327195;Fritsche et al. (2020);Experiment 3;Orientation
1;2;91;39;27.2500290876828;2.3176751542851;2;-45;-11.7499709123172;Fritsche et al. (2020);Experiment 3;Orientation
1;2;92;42;42.6481354892112;2.26767725714308;1;-3;0.648135489211199;Fritsche et al. (2020);Experiment 3;Orientation
1;2;93;180;179.59096617401;1.15113508571449;1;42;-0.409033825989638;Fritsche et al. (2020);Experiment 3;Orientation
1;2;94;135;114.244920460962;2.06767140571446;1;45;-20.7550795390382;Fritsche et al. (2020);Experiment 3;Orientation
1;2;95;115;128.33181941381;1.65102372571437;2;20;13.3318194138099;Fritsche et al. (2020);Experiment 3;Orientation
1;2;96;82;76.2511679307399;2.23439030857116;1;33;-5.74883206926013;Fritsche et al. (2020);Experiment 3;Orientation
1;2;97;145;128.449076565899;1.75098880000041;2;-63;-16.5509234341014;Fritsche et al. (2020);Experiment 3;Orientation
1;2;98;70;68.5846509931376;1.13456530285748;1;75;-1.41534900686236;Fritsche et al. (2020);Experiment 3;Orientation
1;2;99;38;36.0139371359746;1.11776621714307;1;32;-1.98606286402541;Fritsche et al. (2020);Experiment 3;Orientation
1;2;100;108;100.695475904177;1.63406921142814;1;-70;-7.30452409582296;Fritsche et al. (2020);Experiment 3;Orientation
1;2;101;86;87.2242756505256;1.10112877714255;1;22;1.22427565052563;Fritsche et al. (2020);Experiment 3;Orientation
1;3;1;31;16.1901749645067;1.53466916571415;2;55;-14.8098250354933;Fritsche et al. (2020);Experiment 3;Orientation
1;3;2;134;142.653010579634;1.78446738285675;1;77;8.65301057963413;Fritsche et al. (2020);Experiment 3;Orientation
1;3;3;5;2.93638701847246;2.11771684571431;1;-51;-2.06361298152754;Fritsche et al. (2020);Experiment 3;Orientation
1;3;4;91;91.2674639703027;1.85102372571419;2;-86;0.267463970302714;Fritsche et al. (2020);Experiment 3;Orientation
1;3;5;57;68.7449393623394;1.80157074285671;2;34;11.7449393623394;Fritsche et al. (2020);Experiment 3;Orientation
1;3;6;29;16.0460589552275;1.41778943999998;1;28;-12.9539410447725;Fritsche et al. (2020);Experiment 3;Orientation
1;3;7;91;88.6994899014515;2.0176943542856;1;-62;-2.30051009854853;Fritsche et al. (2020);Experiment 3;Orientation
1;3;8;155;166.851706557716;2.50096201142878;2;-64;11.8517065577163;Fritsche et al. (2020);Experiment 3;Orientation
1;3;9;149;142.56461594324;1.05124278857147;1;6;-6.43538405676031;Fritsche et al. (2020);Experiment 3;Orientation
1;3;10;145;169.948251107202;2.33426505142779;2;4;24.9482511072016;Fritsche et al. (2020);Experiment 3;Orientation
1;3;11;73;59.7330502953537;2.18443519999983;1;72;-13.2669497046463;Fritsche et al. (2020);Experiment 3;Orientation
1;3;12;140;172.208871621744;1.28440356571446;2;-67;32.2088716217437;Fritsche et al. (2020);Experiment 3;Orientation
1;3;13;19;17.6828348200137;1.28454070857151;1;-59;-1.31716517998626;Fritsche et al. (2020);Experiment 3;Orientation
1;3;14;10;13.2147490843327;2.00104630857095;1;9;3.21474908433269;Fritsche et al. (2020);Experiment 3;Orientation
1;3;15;130;165.32912392474;NaN;2;60;35.3291239247399;Fritsche et al. (2020);Experiment 3;Orientation
1;3;16;68;63.3697559582275;2.18438619428616;2;62;-4.63024404177249;Fritsche et al. (2020);Experiment 3;Orientation
1;3;17;78;66.7473102363825;0.901045394285575;2;-10;-11.2526897636175;Fritsche et al. (2020);Experiment 3;Orientation
1;3;18;26;14.7181174309433;2.40106898285649;1;52;-11.2818825690567;Fritsche et al. (2020);Experiment 3;Orientation
1;3;19;22;20.5064180799765;1.46771492571497;2;4;-1.49358192002349;Fritsche et al. (2020);Experiment 3;Orientation
1;3;20;145;160.084534916654;2.23422610285706;2;57;15.084534916654;Fritsche et al. (2020);Experiment 3;Orientation
1;3;21;36;3.53098483001818;1.81796242285782;2;-71;-32.4690151699818;Fritsche et al. (2020);Experiment 3;Orientation
1;3;22;17;24.3287515570859;1.91766564571481;2;19;7.32875155708591;Fritsche et al. (2020);Experiment 3;Orientation
1;3;23;176;162.537220453441;1.0011015314285;1;21;-13.4627795465585;Fritsche et al. (2020);Experiment 3;Orientation
1;3;24;167;2.12366428278024;1.41770642285701;2;9;15.1236642827802;Fritsche et al. (2020);Experiment 3;Orientation
1;3;25;167;158.740337502451;1.38436717714285;1;0;-8.25966249754919;Fritsche et al. (2020);Experiment 3;Orientation
1;3;26;152;143.748239559206;1.68423277714282;2;15;-8.25176044079438;Fritsche et al. (2020);Experiment 3;Orientation
1;3;27;66;66.2991348160033;1.4844876799998;1;86;0.299134816003274;Fritsche et al. (2020);Experiment 3;Orientation
1;3;28;135;118.728311408326;1.75106962285736;1;-69;-16.2716885916743;Fritsche et al. (2020);Experiment 3;Orientation
1;3;29;23;15.687136770676;1.65107419428568;1;-68;-7.31286322932402;Fritsche et al. (2020);Experiment 3;Orientation
1;3;30;71;58.6020805884091;1.35115849142858;1;-48;-12.3979194115909;Fritsche et al. (2020);Experiment 3;Orientation
1;3;31;63;56.0742487535069;1.50105709714353;1;8;-6.92575124649314;Fritsche et al. (2020);Experiment 3;Orientation
1;3;32;49;56.2271335893794;1.03436397714268;2;14;7.22713358937943;Fritsche et al. (2020);Experiment 3;Orientation
1;3;33;52;39.3659457073616;1.56777984000018;1;-3;-12.6340542926384;Fritsche et al. (2020);Experiment 3;Orientation
1;3;34;150;155.580869055402;1.2677979428563;2;82;5.58086905540236;Fritsche et al. (2020);Experiment 3;Orientation
1;3;35;50;26.8515236117923;2.41766473142889;2;-80;-23.1484763882077;Fritsche et al. (2020);Experiment 3;Orientation
1;3;36;122;142.349991275362;1.0676900571425;2;-72;20.3499912753618;Fritsche et al. (2020);Experiment 3;Orientation
1;3;37;18;15.3169127288257;1.03447588571453;1;-76;-2.68308727117434;Fritsche et al. (2020);Experiment 3;Orientation
1;3;38;2;11.139384134007;1.0011582171428;1;16;9.13938413400696;Fritsche et al. (2020);Experiment 3;Orientation
1;3;39;75;60.3596966796111;1.41766107428521;2;-73;-14.6403033203889;Fritsche et al. (2020);Experiment 3;Orientation
1;3;40;123;113.2800293607;1.88428251428559;2;-48;-9.71997063929965;Fritsche et al. (2020);Experiment 3;Orientation
1;3;41;42;47.2629019848134;1.36776521142929;1;81;5.2629019848134;Fritsche et al. (2020);Experiment 3;Orientation
1;3;42;82;60.9144459349429;1.45098605714247;2;-40;-21.0855540650571;Fritsche et al. (2020);Experiment 3;Orientation
1;3;43;89;94.4313062629334;1.68441563428587;1;-7;5.43130626293338;Fritsche et al. (2020);Experiment 3;Orientation
1;3;44;3;179.838182174121;1.78440265142854;2;86;-3.1618178258793;Fritsche et al. (2020);Experiment 3;Orientation
1;3;45;1;0.6628677794114;1.46776722285722;1;2;-0.3371322205886;Fritsche et al. (2020);Experiment 3;Orientation
1;3;46;103;105.386856329283;1.70102857142774;1;78;2.38685632928292;Fritsche et al. (2020);Experiment 3;Orientation
1;3;47;102;104.350703480962;1.90112292571484;1;1;2.35070348096249;Fritsche et al. (2020);Experiment 3;Orientation
1;3;48;89;90.7645732779148;1.81783881142837;1;13;1.76457327791482;Fritsche et al. (2020);Experiment 3;Orientation
1;3;49;133;166.794089209868;2.56753188571383;2;-44;33.7940892098678;Fritsche et al. (2020);Experiment 3;Orientation
1;3;50;111;95.0852560344118;1.95088786285669;2;22;-15.9147439655882;Fritsche et al. (2020);Experiment 3;Orientation
1;3;51;62;64.0796025499701;2.68443940571433;1;49;2.07960254997012;Fritsche et al. (2020);Experiment 3;Orientation
1;3;52;52;52.779431017479;1.13455067428549;1;10;0.779431017479013;Fritsche et al. (2020);Experiment 3;Orientation
1;3;53;40;5.29886801297563;1.95098185142888;2;12;-34.7011319870244;Fritsche et al. (2020);Experiment 3;Orientation
1;3;54;68;72.7401158441883;2.18436461714282;1;-28;4.74011584418825;Fritsche et al. (2020);Experiment 3;Orientation
1;3;55;162;171.081258853311;2.11763675428574;1;86;9.0812588533106;Fritsche et al. (2020);Experiment 3;Orientation
1;3;56;112;104.846822605435;1.93432905142799;2;50;-7.15317739456492;Fritsche et al. (2020);Experiment 3;Orientation
1;3;57;141;179.009390381958;2.0346093714279;2;-29;38.0093903819583;Fritsche et al. (2020);Experiment 3;Orientation
1;3;58;173;0.169604550901283;2.26770724571452;2;-32;7.16960455090128;Fritsche et al. (2020);Experiment 3;Orientation
1;3;59;75;73.7031038108019;2.10102381714296;1;-82;-1.29689618919812;Fritsche et al. (2020);Experiment 3;Orientation
1;3;60;33;12.4996297534719;2.18435876571402;1;42;-20.5003702465281;Fritsche et al. (2020);Experiment 3;Orientation
1;3;61;37;11.328793033571;1.58440265142872;1;-4;-25.671206966429;Fritsche et al. (2020);Experiment 3;Orientation
1;3;62;21;179.070536085922;1.68427154285746;2;16;-21.9294639140776;Fritsche et al. (2020);Experiment 3;Orientation
1;3;63;23;7.35978396739661;1.71776621714253;2;-2;-15.6402160326034;Fritsche et al. (2020);Experiment 3;Orientation
1;3;64;27;8.44181305026657;1.95106596571441;1;-4;-18.5581869497334;Fritsche et al. (2020);Experiment 3;Orientation
1;3;65;49;27.3845888506944;1.61786806857162;1;-22;-21.6154111493056;Fritsche et al. (2020);Experiment 3;Orientation
1;3;66;107;103.912667372379;1.49972809142855;1;-58;-3.08733262762053;Fritsche et al. (2020);Experiment 3;Orientation
1;3;67;171;173.722519781986;1.31775853714225;2;-64;2.72251978198625;Fritsche et al. (2020);Experiment 3;Orientation
1;3;68;119;109.72958423442;2.18436315428517;2;52;-9.2704157655798;Fritsche et al. (2020);Experiment 3;Orientation
1;3;69;118;116.970403909163;1.68447451428528;1;1;-1.02959609083666;Fritsche et al. (2020);Experiment 3;Orientation
1;3;70;149;168.28489560337;1.91771538285684;1;-31;19.2848956033699;Fritsche et al. (2020);Experiment 3;Orientation
1;3;71;82;73.8534227070354;1.60106678857119;1;67;-8.14657729296464;Fritsche et al. (2020);Experiment 3;Orientation
1;3;72;141;171.562029306326;1.31767808000041;2;-59;30.5620293063258;Fritsche et al. (2020);Experiment 3;Orientation
1;3;73;28;12.1441373954275;1.33446546285722;2;-67;-15.8558626045725;Fritsche et al. (2020);Experiment 3;Orientation
1;3;74;145;175.276684331651;1.10111670857168;2;63;30.2766843316509;Fritsche et al. (2020);Experiment 3;Orientation
1;3;75;36;38.1599993772074;1.30104393142847;1;-71;2.15999937720738;Fritsche et al. (2020);Experiment 3;Orientation
1;3;76;114;107.328418887661;1.75098367999999;2;-78;-6.67158111233869;Fritsche et al. (2020);Experiment 3;Orientation
1;3;77;0;14.5698070137907;1.80093001142814;2;-66;14.5698070137907;Fritsche et al. (2020);Experiment 3;Orientation
1;3;78;146;170.643973234172;2.23442980571417;1;34;24.643973234172;Fritsche et al. (2020);Experiment 3;Orientation
1;3;79;65;61.51425791342;2.65100580571379;1;81;-3.48574208658;Fritsche et al. (2020);Experiment 3;Orientation
1;3;80;111;88.554601178136;2.317666742857;2;-46;-22.445398821864;Fritsche et al. (2020);Experiment 3;Orientation
1;3;81;129;110.458062758788;2.4175564799998;2;-18;-18.5419372412117;Fritsche et al. (2020);Experiment 3;Orientation
1;3;82;72;63.4808020410757;1.03438811428532;2;57;-8.51919795892434;Fritsche et al. (2020);Experiment 3;Orientation
1;3;83;28;37.328421245679;1.30181449142856;2;44;9.32842124567901;Fritsche et al. (2020);Experiment 3;Orientation
1;3;84;130;135.76490523406;2.36770340571456;2;78;5.76490523406045;Fritsche et al. (2020);Experiment 3;Orientation
1;3;85;15;39.7271119862179;1.60104703999968;2;-65;24.7271119862179;Fritsche et al. (2020);Experiment 3;Orientation
1;3;86;55;27.6958211539025;2.33433929142848;2;-40;-27.3041788460975;Fritsche et al. (2020);Experiment 3;Orientation
1;3;87;103;109.82174363922;1.18456210285694;2;-48;6.8217436392203;Fritsche et al. (2020);Experiment 3;Orientation
1;3;88;161;163.322406382376;1.33443803428599;1;-58;2.32240638237627;Fritsche et al. (2020);Experiment 3;Orientation
1;3;89;117;125.478952355222;1.31777316571424;1;44;8.47895235522157;Fritsche et al. (2020);Experiment 3;Orientation
1;3;90;97;96.2406801870754;2.21772909714309;1;20;-0.759319812924645;Fritsche et al. (2020);Experiment 3;Orientation
1;3;91;32;16.3971422652331;2.36773412571438;1;65;-15.6028577347669;Fritsche et al. (2020);Experiment 3;Orientation
1;3;92;163;168.060227161321;2.08434943999964;1;49;5.06022716132139;Fritsche et al. (2020);Experiment 3;Orientation
1;3;93;97;96.217765037528;1.7843302400006;2;66;-0.782234962471961;Fritsche et al. (2020);Experiment 3;Orientation
1;3;94;172;171.151856277201;1.50109476571379;1;-75;-0.848143722799307;Fritsche et al. (2020);Experiment 3;Orientation
1;3;95;32;8.02261664287603;1.95098221714306;2;-40;-23.977383357124;Fritsche et al. (2020);Experiment 3;Orientation
1;3;96;156;174.382594478234;0.984452022857113;1;56;18.3825944782343;Fritsche et al. (2020);Experiment 3;Orientation
1;3;97;102;108.66740975471;2.35090066285738;2;54;6.66740975471011;Fritsche et al. (2020);Experiment 3;Orientation
1;3;98;76;80.5996836437777;1.36772461714281;2;26;4.59968364377767;Fritsche et al. (2020);Experiment 3;Orientation
1;3;99;44;29.4154029049056;1.2011757714281;1;32;-14.5845970950944;Fritsche et al. (2020);Experiment 3;Orientation
1;3;100;91;101.194392932976;1.8510829714287;1;-47;10.1943929329757;Fritsche et al. (2020);Experiment 3;Orientation
1;3;101;70;73.7103943085716;1.58431122285674;2;21;3.71039430857161;Fritsche et al. (2020);Experiment 3;Orientation
1;4;1;17;16.0054656944542;1.90103734857166;1;53;-0.994534305545756;Fritsche et al. (2020);Experiment 3;Orientation
1;4;2;13;6.99198632670208;2.58477641142872;1;4;-6.00801367329792;Fritsche et al. (2020);Experiment 3;Orientation
1;4;3;101;105.477331251963;2.11772233142801;1;-88;4.47733125196278;Fritsche et al. (2020);Experiment 3;Orientation
1;4;4;165;167.780761250105;2.4342257371427;2;-64;2.780761250105;Fritsche et al. (2020);Experiment 3;Orientation
1;4;5;53;62.534793840338;2.23441444571472;2;-68;9.53479384033801;Fritsche et al. (2020);Experiment 3;Orientation
1;4;6;56;40.0880399747424;2.23445028571405;1;-3;-15.9119600252576;Fritsche et al. (2020);Experiment 3;Orientation
1;4;7;26;14.7276338376931;2.21760731428549;2;30;-11.2723661623069;Fritsche et al. (2020);Experiment 3;Orientation
1;4;8;159;166.156399944851;1.18448639999951;2;47;7.15639994485122;Fritsche et al. (2020);Experiment 3;Orientation
1;4;9;117;121.617013712472;1.83417417142846;2;42;4.61701371247223;Fritsche et al. (2020);Experiment 3;Orientation
1;4;10;34;25.7380803280248;2.76760795428527;2;83;-8.26191967197521;Fritsche et al. (2020);Experiment 3;Orientation
1;4;11;141;145.453455698062;1.23450660571507;1;73;4.45345569806238;Fritsche et al. (2020);Experiment 3;Orientation
1;4;12;136;134.369985842535;2.25105005714249;1;5;-1.63001415746484;Fritsche et al. (2020);Experiment 3;Orientation
1;4;13;82;79.28908668918;2.13438281142862;1;54;-2.71091331082003;Fritsche et al. (2020);Experiment 3;Orientation
1;4;14;69;61.8862196026462;1.0844668342861;2;13;-7.11378039735378;Fritsche et al. (2020);Experiment 3;Orientation
1;4;15;17;14.3958006564545;1.0678458514285;1;52;-2.60419934354555;Fritsche et al. (2020);Experiment 3;Orientation
1;4;16;64;79.5409695550412;1.53428699428514;2;-47;15.5409695550412;Fritsche et al. (2020);Experiment 3;Orientation
1;4;17;152;160.414251192407;1.20112347428585;1;-88;8.41425119240742;Fritsche et al. (2020);Experiment 3;Orientation
1;4;18;96;103.572113710987;2.85097179428521;1;56;7.57211371098703;Fritsche et al. (2020);Experiment 3;Orientation
1;4;19;36;21.3897337343619;2.10122934857282;1;60;-14.6102662656381;Fritsche et al. (2020);Experiment 3;Orientation
1;4;20;66;54.8626942815832;1.20104630857168;1;-30;-11.1373057184168;Fritsche et al. (2020);Experiment 3;Orientation
1;4;21;172;156.137509433954;1.61772361142903;2;74;-15.8624905660462;Fritsche et al. (2020);Experiment 3;Orientation
1;4;22;47;34.0210151843846;2.00107373714127;1;-55;-12.9789848156154;Fritsche et al. (2020);Experiment 3;Orientation
1;4;23;171;160.538535768219;1.85095606857067;2;56;-10.4614642317812;Fritsche et al. (2020);Experiment 3;Orientation
1;4;24;108;119.535323779495;1.7009280000002;2;63;11.5353237794952;Fritsche et al. (2020);Experiment 3;Orientation
1;4;25;152;155.78236609287;1.13417691428549;2;-44;3.78236609286961;Fritsche et al. (2020);Experiment 3;Orientation
1;4;26;142;168.036753090268;1.90113316571478;1;10;26.0367530902683;Fritsche et al. (2020);Experiment 3;Orientation
1;4;27;64;60.7196504425132;2.51789202285727;1;78;-3.28034955748675;Fritsche et al. (2020);Experiment 3;Orientation
1;4;28;57;60.1443485984491;1.30113938285831;1;7;3.14434859844906;Fritsche et al. (2020);Experiment 3;Orientation
1;4;29;164;169.316347204926;2.03434532571555;1;73;5.31634720492622;Fritsche et al. (2020);Experiment 3;Orientation
1;4;30;91;93.5796828266166;1.65060022857142;2;73;2.57968282661662;Fritsche et al. (2020);Experiment 3;Orientation
1;4;31;112;108.199871229582;1.16776484571346;2;-21;-3.8001287704184;Fritsche et al. (2020);Experiment 3;Orientation
1;4;32;19;18.1675092107783;1.4844986514272;1;-87;-0.832490789221723;Fritsche et al. (2020);Experiment 3;Orientation
1;4;33;101;99.1122922233738;1.78429549714201;2;-82;-1.88770777662624;Fritsche et al. (2020);Experiment 3;Orientation
1;4;34;135;153.351209387559;2.18433316571463;2;-34;18.351209387559;Fritsche et al. (2020);Experiment 3;Orientation
1;4;35;125;104.870430748453;1.16770925714263;2;10;-20.1295692515466;Fritsche et al. (2020);Experiment 3;Orientation
1;4;36;93;89.7657268623485;2.41767423999954;2;32;-3.2342731376515;Fritsche et al. (2020);Experiment 3;Orientation
1;4;37;17;20.6131340083037;1.93425956571264;2;76;3.61313400830375;Fritsche et al. (2020);Experiment 3;Orientation
1;4;38;20;21.9115500407873;1.96769974857125;1;-3;1.91155004078726;Fritsche et al. (2020);Experiment 3;Orientation
1;4;39;135;155.110212565075;1.65116635428603;1;65;20.1102125650746;Fritsche et al. (2020);Experiment 3;Orientation
1;4;40;73;62.9220838265447;1.81785892571315;2;62;-10.0779161734553;Fritsche et al. (2020);Experiment 3;Orientation
1;4;41;88;89.5022725521619;1.93434221714415;1;-15;1.50227255216187;Fritsche et al. (2020);Experiment 3;Orientation
1;4;42;52;68.1901197599405;1.2677302857137;2;36;16.1901197599405;Fritsche et al. (2020);Experiment 3;Orientation
1;4;43;48;51.851133343312;1.10106916571567;1;4;3.851133343312;Fritsche et al. (2020);Experiment 3;Orientation
1;4;44;57;69.8668556839121;1.41845650285723;1;-9;12.8668556839121;Fritsche et al. (2020);Experiment 3;Orientation
1;4;45;82;78.7497908773741;2.53435830857234;2;-25;-3.25020912262586;Fritsche et al. (2020);Experiment 3;Orientation
1;4;46;136;153.503933812181;1.8843838171415;1;-54;17.5039338121807;Fritsche et al. (2020);Experiment 3;Orientation
1;4;47;80;80.1157578045147;2.21773385142842;1;56;0.115757804514658;Fritsche et al. (2020);Experiment 3;Orientation
1;4;48;139;157.246792173493;1.60115200000109;1;-59;18.2467921734934;Fritsche et al. (2020);Experiment 3;Orientation
1;4;49;27;8.23208244550064;2.61782418285657;1;-68;-18.7679175544994;Fritsche et al. (2020);Experiment 3;Orientation
1;4;50;93;87.4319115358851;1.06775698285674;2;-66;-5.56808846411489;Fritsche et al. (2020);Experiment 3;Orientation
1;4;51;169;167.408474254462;2.88425581714182;2;-76;-1.59152574553787;Fritsche et al. (2020);Experiment 3;Orientation
1;4;52;77;75.3610840286851;2.11777426285698;1;-88;-1.63891597131489;Fritsche et al. (2020);Experiment 3;Orientation
1;4;53;109;98.6943010137307;2.36756772571425;1;-32;-10.3056989862693;Fritsche et al. (2020);Experiment 3;Orientation
1;4;54;133;159.752581780108;1.13439890285736;1;-24;26.7525817801077;Fritsche et al. (2020);Experiment 3;Orientation
1;4;55;159;170.127329438037;1.66776502857283;2;-26;11.1273294380371;Fritsche et al. (2020);Experiment 3;Orientation
1;4;56;135;162.15244078846;2.21767131428533;2;24;27.1524407884603;Fritsche et al. (2020);Experiment 3;Orientation
1;4;57;93;101.803032246815;2.33426870857147;2;42;8.80303224681504;Fritsche et al. (2020);Experiment 3;Orientation
1;4;58;149;149.146685470801;1.88437577142759;2;-56;0.146685470800747;Fritsche et al. (2020);Experiment 3;Orientation
1;4;59;8;155.056095806607;1.96764050285674;2;-39;-32.9439041933935;Fritsche et al. (2020);Experiment 3;Orientation
1;4;60;143;23.1141040886495;2.46761325714215;2;45;60.1141040886495;Fritsche et al. (2020);Experiment 3;Orientation
1;4;61;138;170.683662386687;1.43435410285747;2;5;32.6836623866872;Fritsche et al. (2020);Experiment 3;Orientation
1;4;62;164;159.603246917797;2.31765796571381;2;-26;-4.39675308220325;Fritsche et al. (2020);Experiment 3;Orientation
1;4;63;1;9.48862681831871;2.23452489142801;1;-17;8.48862681831871;Fritsche et al. (2020);Experiment 3;Orientation
1;4;64;63;77.8520189866287;2.43433654857108;1;-62;14.8520189866287;Fritsche et al. (2020);Experiment 3;Orientation
1;4;65;128;122.309129522928;2.8342579199998;2;-65;-5.69087047707249;Fritsche et al. (2020);Experiment 3;Orientation
1;4;66;123;120.148761965699;2.30101979428582;1;5;-2.85123803430054;Fritsche et al. (2020);Experiment 3;Orientation
1;4;67;158;166.889089243785;1.40107775999968;2;-35;8.88908924378461;Fritsche et al. (2020);Experiment 3;Orientation
1;4;68;139;175.415167369911;2.25103030857099;1;19;36.4151673699105;Fritsche et al. (2020);Experiment 3;Orientation
1;4;69;180;176.394538387711;1.70112475428505;1;-41;-3.60546161228888;Fritsche et al. (2020);Experiment 3;Orientation
1;4;70;76;86.0660083965475;1.31781741714258;1;-76;10.0660083965475;Fritsche et al. (2020);Experiment 3;Orientation
1;4;71;72;72.6872109197257;1.93429248000029;2;4;0.6872109197257;Fritsche et al. (2020);Experiment 3;Orientation
1;4;72;116;106.258427178262;2.31772160000037;2;-44;-9.74157282173759;Fritsche et al. (2020);Experiment 3;Orientation
1;4;73;103;103.746451866379;1.21767021714186;2;13;0.746451866379175;Fritsche et al. (2020);Experiment 3;Orientation
1;4;74;84;85.0728833547374;2.33445632000075;1;19;1.07288335473737;Fritsche et al. (2020);Experiment 3;Orientation
1;4;75;49;45.5602647371219;2.20115675428497;1;35;-3.43973526287809;Fritsche et al. (2020);Experiment 3;Orientation
1;4;76;37;19.5076316390052;1.9342496914287;2;12;-17.4923683609948;Fritsche et al. (2020);Experiment 3;Orientation
1;4;77;109;98.3086917715392;2.4010689828574;1;-72;-10.6913082284608;Fritsche et al. (2020);Experiment 3;Orientation
1;4;78;150;179.223788929267;2.40101705142843;2;-41;29.2237889292666;Fritsche et al. (2020);Experiment 3;Orientation
1;4;79;95;90.5766175120777;1.81767606857102;1;55;-4.42338248792228;Fritsche et al. (2020);Experiment 3;Orientation
1;4;80;135;168.470456959683;1.38438875428619;2;-40;33.4704569596834;Fritsche et al. (2020);Experiment 3;Orientation
1;4;81;32;12.7071939483215;1.95106962285718;1;-77;-19.2928060516785;Fritsche et al. (2020);Experiment 3;Orientation
1;4;82;39;6.08953192817908;2.21769545142888;2;-7;-32.9104680718209;Fritsche et al. (2020);Experiment 3;Orientation
1;4;83;155;163.218118903111;0.934370377142841;2;64;8.21811890311108;Fritsche et al. (2020);Experiment 3;Orientation
1;4;84;131;105.441993855052;1.48456155428539;1;24;-25.5580061449485;Fritsche et al. (2020);Experiment 3;Orientation
1;4;85;115;106.380233473641;2.81758244571392;2;16;-8.61976652635937;Fritsche et al. (2020);Experiment 3;Orientation
1;4;86;52;17.4215856493349;1.71768576000068;2;63;-34.5784143506651;Fritsche et al. (2020);Experiment 3;Orientation
1;4;87;58;49.5373169086509;2.93430710857137;1;-6;-8.46268309134906;Fritsche et al. (2020);Experiment 3;Orientation
1;4;88;43;34.1734738344922;1.08449389714224;1;15;-8.82652616550779;Fritsche et al. (2020);Experiment 3;Orientation
1;4;89;65;56.1276670515199;1.40113993142768;1;-22;-8.8723329484801;Fritsche et al. (2020);Experiment 3;Orientation
1;4;90;147;169.124413121167;2.18435072000102;2;-82;22.1244131211673;Fritsche et al. (2020);Experiment 3;Orientation
1;4;91;51;53.5361766955689;1.83443968000029;1;-84;2.53617669556895;Fritsche et al. (2020);Experiment 3;Orientation
1;4;92;99;97.8085162970927;1.15110253714192;1;-48;-1.19148370290732;Fritsche et al. (2020);Experiment 3;Orientation
1;4;93;139;162.112317882319;1.43437970285777;2;-40;23.1123178823188;Fritsche et al. (2020);Experiment 3;Orientation
1;4;94;76;79.5229864791545;1.2343979885718;2;63;3.5229864791545;Fritsche et al. (2020);Experiment 3;Orientation
1;4;95;114;119.693443646267;0.917761097143739;1;-38;5.69344364626738;Fritsche et al. (2020);Experiment 3;Orientation
1;4;96;23;16.7185838198164;1.20100937142888;2;-89;-6.28141618018358;Fritsche et al. (2020);Experiment 3;Orientation
1;4;97;96;94.9726173344011;1.23449343999891;1;-73;-1.02738266559886;Fritsche et al. (2020);Experiment 3;Orientation
1;4;98;117;110.623725211215;1.38436717714285;2;-21;-6.37627478878497;Fritsche et al. (2020);Experiment 3;Orientation
1;4;99;165;171.847059632596;2.48434249142883;2;-48;6.8470596325962;Fritsche et al. (2020);Experiment 3;Orientation
1;4;100;156;147.319262953731;1.284481462857;1;9;-8.68073704626917;Fritsche et al. (2020);Experiment 3;Orientation
1;4;101;33;5.23384233249826;1.20108726857143;1;-57;-27.7661576675017;Fritsche et al. (2020);Experiment 3;Orientation
1;5;1;1;177.357241655827;1.7341359542861;2;32;-3.64275834417344;Fritsche et al. (2020);Experiment 3;Orientation
1;5;2;56;71.6670874174886;1.31771611428485;2;-55;15.6670874174886;Fritsche et al. (2020);Experiment 3;Orientation
1;5;3;118;115.909492200777;1.25102592000076;2;-62;-2.09050779922293;Fritsche et al. (2020);Experiment 3;Orientation
1;5;4;71;64.2375666209011;1.45107858285701;1;47;-6.76243337909885;Fritsche et al. (2020);Experiment 3;Orientation
1;5;5;33;22.1071614782859;1.73435867428634;2;38;-10.8928385217141;Fritsche et al. (2020);Experiment 3;Orientation
1;5;6;21;16.3649575119163;1.38461220571298;2;12;-4.63504248808366;Fritsche et al. (2020);Experiment 3;Orientation
1;5;7;114;115.246691433835;1.33447680000063;1;87;1.2466914338352;Fritsche et al. (2020);Experiment 3;Orientation
1;5;8;49;42.7143926921884;1.70111158857253;1;65;-6.28560730781156;Fritsche et al. (2020);Experiment 3;Orientation
1;5;9;170;163.189648784234;1.26779136000005;1;59;-6.81035121576559;Fritsche et al. (2020);Experiment 3;Orientation
1;5;10;136;152.110110157612;1.28449060571438;1;34;16.1101101576119;Fritsche et al. (2020);Experiment 3;Orientation
1;5;11;103;108.997611465682;2.13429248000102;2;33;5.99761146568187;Fritsche et al. (2020);Experiment 3;Orientation
1;5;12;97;99.5589083752851;2.01772690285725;1;6;2.55890837528513;Fritsche et al. (2020);Experiment 3;Orientation
1;5;13;21;21.3388999318769;1.01775725714288;1;76;0.338899931876924;Fritsche et al. (2020);Experiment 3;Orientation
1;5;14;110;111.049580825342;1.43491474285656;1;-89;1.04958082534156;Fritsche et al. (2020);Experiment 3;Orientation
1;5;15;71;64.7200277678226;1.3845354057139;1;39;-6.27997223217744;Fritsche et al. (2020);Experiment 3;Orientation
1;5;16;104;102.75970074006;2.16771510857143;1;-33;-1.24029925993952;Fritsche et al. (2020);Experiment 3;Orientation
1;5;17;14;10.4263873693921;1.55128064000019;1;90;-3.57361263060794;Fritsche et al. (2020);Experiment 3;Orientation
1;5;18;1;8.02334737678825;1.80096731428421;2;13;7.02334737678825;Fritsche et al. (2020);Experiment 3;Orientation
1;5;19;128;121.268165865447;1.26773686857268;2;53;-6.73183413455287;Fritsche et al. (2020);Experiment 3;Orientation
1;5;20;66;61.9848482933079;1.00107264000144;2;62;-4.01515170669212;Fritsche et al. (2020);Experiment 3;Orientation
1;5;21;43;41.0352081698309;1.20112603428606;2;23;-1.96479183016914;Fritsche et al. (2020);Experiment 3;Orientation
1;5;22;146;149.026126894148;2.31765174857173;2;77;3.02612689414786;Fritsche et al. (2020);Experiment 3;Orientation
1;5;23;132;147.018555238245;1.08448292571484;1;14;15.0185552382452;Fritsche et al. (2020);Experiment 3;Orientation
1;5;24;75;61.2203377154377;1.03438262857162;2;57;-13.7796622845623;Fritsche et al. (2020);Experiment 3;Orientation
1;5;25;34;12.7443675518677;1.46783451428564;1;41;-21.2556324481323;Fritsche et al. (2020);Experiment 3;Orientation
1;5;26;39;22.8118918207539;0.951239314284976;1;-5;-16.1881081792461;Fritsche et al. (2020);Experiment 3;Orientation
1;5;27;78;65.6028952858354;0.91775926857008;1;-39;-12.3971047141646;Fritsche et al. (2020);Experiment 3;Orientation
1;5;28;9;14.2234864829239;1.11778084571415;2;69;5.22348648292389;Fritsche et al. (2020);Experiment 3;Orientation
1;5;29;19;8.53588745506465;1.18426806857133;2;-10;-10.4641125449353;Fritsche et al. (2020);Experiment 3;Orientation
1;5;30;176;165.10049579531;1.50111085714343;1;23;-10.8995042046898;Fritsche et al. (2020);Experiment 3;Orientation
1;5;31;142;163.300344685069;1.80098157714383;2;34;21.3003446850695;Fritsche et al. (2020);Experiment 3;Orientation
1;5;32;140;151.353538484033;2.0843110400001;1;2;11.3535384840334;Fritsche et al. (2020);Experiment 3;Orientation
1;5;33;7;12.0039012819426;2.20106020571438;2;-47;5.0039012819426;Fritsche et al. (2020);Experiment 3;Orientation
1;5;34;146;159.64262298023;1.11770624000019;2;41;13.6426229802301;Fritsche et al. (2020);Experiment 3;Orientation
1;5;35;154;171.176581662148;0.834509531428921;1;-8;17.1765816621479;Fritsche et al. (2020);Experiment 3;Orientation
1;5;36;87;83.8938593607508;2.03444626285636;1;67;-3.10614063924918;Fritsche et al. (2020);Experiment 3;Orientation
1;5;37;127;138.545919004835;2.60094683428542;2;-40;11.545919004835;Fritsche et al. (2020);Experiment 3;Orientation
1;5;38;143;163.048500095783;1.50106989714186;1;-16;20.0485000957829;Fritsche et al. (2020);Experiment 3;Orientation
1;5;39;38;17.2817105477518;1.35110290285775;2;-75;-20.7182894522482;Fritsche et al. (2020);Experiment 3;Orientation
1;5;40;22;16.3165600051039;1.51771428571374;2;16;-5.68343999489606;Fritsche et al. (2020);Experiment 3;Orientation
1;5;41;75;70.2265294581708;2.06779684571484;2;-53;-4.77347054182917;Fritsche et al. (2020);Experiment 3;Orientation
1;5;42;27;12.2849755044921;1.8010956800008;1;48;-14.7150244955079;Fritsche et al. (2020);Experiment 3;Orientation
1;5;43;154;166.595169502071;2.88421083428511;2;53;12.595169502071;Fritsche et al. (2020);Experiment 3;Orientation
1;5;44;47;53.9396972999502;2.08446281142824;2;-73;6.93969729995016;Fritsche et al. (2020);Experiment 3;Orientation
1;5;45;22;179.754025672062;0.867747840000447;1;25;-22.2459743279384;Fritsche et al. (2020);Experiment 3;Orientation
1;5;46;179;179.622299810771;2.00100827428651;2;23;0.622299810771096;Fritsche et al. (2020);Experiment 3;Orientation
1;5;47;179;2.47706463968328;2.76780873142707;1;0;3.47706463968328;Fritsche et al. (2020);Experiment 3;Orientation
1;5;48;24;15.0168620970514;1.81772287999956;1;-25;-8.98313790294857;Fritsche et al. (2020);Experiment 3;Orientation
1;5;49;123;105.550986001073;1.91762212571302;2;81;-17.4490139989269;Fritsche et al. (2020);Experiment 3;Orientation
1;5;50;89;91.8374806587758;1.86774125714328;1;34;2.8374806587758;Fritsche et al. (2020);Experiment 3;Orientation
1;5;51;73;83.4283642586069;1.86775259428578;1;16;10.4283642586069;Fritsche et al. (2020);Experiment 3;Orientation
1;5;52;60;73.9394622521784;1.80097682285668;2;13;13.9394622521784;Fritsche et al. (2020);Experiment 3;Orientation
1;5;53;1;2.41107333023977;1.75111204571294;1;59;1.41107333023977;Fritsche et al. (2020);Experiment 3;Orientation
1;5;54;102;101.004749282296;1.06779062857095;1;79;-0.995250717703868;Fritsche et al. (2020);Experiment 3;Orientation
1;5;55;171;169.160069539789;2.4009552457137;2;-69;-1.83993046021135;Fritsche et al. (2020);Experiment 3;Orientation
1;5;56;16;26.0870793135948;1.48437942857163;2;-25;10.0870793135948;Fritsche et al. (2020);Experiment 3;Orientation
1;5;57;114;108.102577978011;1.86776649142848;1;82;-5.89742202198917;Fritsche et al. (2020);Experiment 3;Orientation
1;5;58;97;109.717776858669;1.23438116571378;2;17;12.717776858669;Fritsche et al. (2020);Experiment 3;Orientation
1;5;59;42;16.9061575416092;1.76782262857159;1;55;-25.0938424583908;Fritsche et al. (2020);Experiment 3;Orientation
1;5;60;28;21.8442992825875;0.951115337142255;1;14;-6.15570071741254;Fritsche et al. (2020);Experiment 3;Orientation
1;5;61;40;30.9803885047107;1.2011589485719;1;-12;-9.01961149528933;Fritsche et al. (2020);Experiment 3;Orientation
1;5;62;95;90.0772019134021;1.83421403428474;2;-55;-4.92279808659785;Fritsche et al. (2020);Experiment 3;Orientation
1;5;63;162;173.106636359692;1.70105746285662;2;-67;11.1066363596922;Fritsche et al. (2020);Experiment 3;Orientation
1;5;64;36;25.4284935402109;1.06779940571505;1;-54;-10.5715064597891;Fritsche et al. (2020);Experiment 3;Orientation
1;5;65;46;27.7745091585971;1.38444214857191;1;-10;-18.2254908414029;Fritsche et al. (2020);Experiment 3;Orientation
1;5;66;16;14.4796419166449;2.5011115885718;1;30;-1.52035808335509;Fritsche et al. (2020);Experiment 3;Orientation
1;5;67;21;11.3135814007122;1.58445714285699;2;-5;-9.68641859928783;Fritsche et al. (2020);Experiment 3;Orientation
1;5;68;41;36.8643674932114;1.35115593142837;1;-20;-4.13563250678862;Fritsche et al. (2020);Experiment 3;Orientation
1;5;69;111;105.119565477799;1.56776850285678;1;-70;-5.88043452220109;Fritsche et al. (2020);Experiment 3;Orientation
1;5;70;114;112.148394145544;0.901137554286834;1;-3;-1.85160585445648;Fritsche et al. (2020);Experiment 3;Orientation
1;5;71;33;13.7186888305303;1.96777069714335;1;81;-19.2813111694697;Fritsche et al. (2020);Experiment 3;Orientation
1;5;72;9;1.6838300206483;1.38446957714223;2;24;-7.3161699793517;Fritsche et al. (2020);Experiment 3;Orientation
1;5;73;13;4.59329495244556;1.75093321142776;2;-4;-8.40670504755444;Fritsche et al. (2020);Experiment 3;Orientation
1;5;74;43;8.38398754627858;2.20104118857125;2;-30;-34.6160124537214;Fritsche et al. (2020);Experiment 3;Orientation
1;5;75;143;159.517252623408;1.28454326856991;1;80;16.5172526234081;Fritsche et al. (2020);Experiment 3;Orientation
1;5;76;21;10.7889889490431;2.05108845714312;1;-58;-10.2110110509569;Fritsche et al. (2020);Experiment 3;Orientation
1;5;77;44;16.3807781412393;1.56777983999928;2;-23;-27.6192218587607;Fritsche et al. (2020);Experiment 3;Orientation
1;5;78;158;176.737803744617;2.28446756571429;1;66;18.7378037446168;Fritsche et al. (2020);Experiment 3;Orientation
1;5;79;35;13.3106810878785;1.10108964571373;2;-57;-21.6893189121215;Fritsche et al. (2020);Experiment 3;Orientation
1;5;80;155;168.417972601524;2.46786559999964;1;60;13.4179726015239;Fritsche et al. (2020);Experiment 3;Orientation
1;5;81;52;52.9514243987445;2.60097682285777;1;-77;0.951424398744535;Fritsche et al. (2020);Experiment 3;Orientation
1;5;82;45;17.8713652302661;1.86776758857195;2;7;-27.1286347697339;Fritsche et al. (2020);Experiment 3;Orientation
1;5;83;78;59.7935522057318;0.984577828570764;2;-33;-18.2064477942682;Fritsche et al. (2020);Experiment 3;Orientation
1;5;84;135;119.627917189352;2.85094107428631;2;-57;-15.3720828106481;Fritsche et al. (2020);Experiment 3;Orientation
1;5;85;85;69.8558048328522;1.58431341714277;2;50;-15.1441951671478;Fritsche et al. (2020);Experiment 3;Orientation
1;5;86;85;77.114910033195;2.1842545371419;2;0;-7.885089966805;Fritsche et al. (2020);Experiment 3;Orientation
1;5;87;118;109.042068057974;2.18410166857029;1;-33;-8.95793194202606;Fritsche et al. (2020);Experiment 3;Orientation
1;5;88;117;118.116341074731;1.95100781714245;2;1;1.11634107473145;Fritsche et al. (2020);Experiment 3;Orientation
1;5;89;69;42.0503422082903;1.91766710857155;2;48;-26.9496577917097;Fritsche et al. (2020);Experiment 3;Orientation
1;5;90;141;146.395496807317;1.45109430857156;2;-72;5.39549680731722;Fritsche et al. (2020);Experiment 3;Orientation
1;5;91;116;111.291923997369;2.08440576000066;1;25;-4.70807600263083;Fritsche et al. (2020);Experiment 3;Orientation
1;5;92;137;160.543875120119;1.31775085714253;2;-21;23.5438751201187;Fritsche et al. (2020);Experiment 3;Orientation
1;5;93;15;11.5000913623606;1.53439049142798;1;-58;-3.49990863763939;Fritsche et al. (2020);Experiment 3;Orientation
1;5;94;164;164.978463469175;1.35115410285835;1;31;0.978463469174528;Fritsche et al. (2020);Experiment 3;Orientation
1;5;95;114;105.520572194449;1.40112895999846;1;50;-8.47942780555148;Fritsche et al. (2020);Experiment 3;Orientation
1;5;96;57;16.6872621077687;2.13438281142953;2;57;-40.3127378922313;Fritsche et al. (2020);Experiment 3;Orientation
1;5;97;93;97.8133058046155;1.65108736000002;1;-36;4.81330580461552;Fritsche et al. (2020);Experiment 3;Orientation
1;5;98;85;73.0936776606776;1.45102445714292;2;8;-11.9063223393224;Fritsche et al. (2020);Experiment 3;Orientation
1;5;99;164;166.102292463296;2.68430079999962;2;-79;2.10229246329598;Fritsche et al. (2020);Experiment 3;Orientation
1;5;100;86;78.5747319412859;2.08429750857067;2;78;-7.4252680587141;Fritsche et al. (2020);Experiment 3;Orientation
1;5;101;135;154.227090541746;NaN;2;-49;19.2270905417463;Fritsche et al. (2020);Experiment 3;Orientation
1;6;1;82;76.1971969998392;1.81762962285757;2;53;-5.80280300016079;Fritsche et al. (2020);Experiment 3;Orientation
1;6;2;126;140.43743554279;2.23435337142837;1;-44;14.4374355427896;Fritsche et al. (2020);Experiment 3;Orientation
1;6;3;105;104.954656491009;2.63420452571336;2;21;-0.0453435089912375;Fritsche et al. (2020);Experiment 3;Orientation
1;6;4;123;138.152842417808;1.1843850971436;2;-18;15.1528424178081;Fritsche et al. (2020);Experiment 3;Orientation
1;6;5;138;148.734695292138;1.01765558857187;2;-15;10.7346952921375;Fritsche et al. (2020);Experiment 3;Orientation
1;6;6;105;100.49247842778;2.51765248000083;1;33;-4.50752157221984;Fritsche et al. (2020);Experiment 3;Orientation
1;6;7;26;7.3971104605733;1.81759305142987;2;79;-18.6028895394267;Fritsche et al. (2020);Experiment 3;Orientation
1;6;8;45;21.4692668747271;1.20097609142977;2;-19;-23.5307331252729;Fritsche et al. (2020);Experiment 3;Orientation
1;6;9;153;169.444266594174;2.63436544000069;1;72;16.4442665941739;Fritsche et al. (2020);Experiment 3;Orientation
1;6;10;33;18.8265939897398;1.41784100571385;2;-60;-14.1734060102602;Fritsche et al. (2020);Experiment 3;Orientation
1;6;11;119;107.668825741971;1.63435812571515;2;-86;-11.3311742580294;Fritsche et al. (2020);Experiment 3;Orientation
1;6;12;27;18.9428590980796;0.91786861714354;1;-88;-8.05714090192036;Fritsche et al. (2020);Experiment 3;Orientation
1;6;13;146;169.799642776352;1.1511687314287;1;61;23.7996427763518;Fritsche et al. (2020);Experiment 3;Orientation
1;6;14;60;58.6929489702169;1.15113691428633;1;86;-1.30705102978305;Fritsche et al. (2020);Experiment 3;Orientation
1;6;15;68;66.2484274517556;1.30111341714291;1;-8;-1.75157254824435;Fritsche et al. (2020);Experiment 3;Orientation
1;6;16;82;62.5862108176843;2.33444498285644;1;-14;-19.4137891823157;Fritsche et al. (2020);Experiment 3;Orientation
1;6;17;146;148.059762396464;1.76779593142783;1;-64;2.05976239646415;Fritsche et al. (2020);Experiment 3;Orientation
1;6;18;68;64.6702072179962;2.86771492571461;1;78;-3.32979278200375;Fritsche et al. (2020);Experiment 3;Orientation
1;6;19;167;168.140814834531;NaN;2;81;1.14081483453091;Fritsche et al. (2020);Experiment 3;Orientation
1;6;20;52;45.8283778447488;1.03439104000063;1;-65;-6.17162215525118;Fritsche et al. (2020);Experiment 3;Orientation
1;6;21;52;61.3898874242146;1.23441005714267;2;0;9.38988742421456;Fritsche et al. (2020);Experiment 3;Orientation
1;6;22;168;175.196472265973;2.06777051428435;1;64;7.19647226597323;Fritsche et al. (2020);Experiment 3;Orientation
1;6;23;142;149.106481835251;1.21777883428513;1;26;7.10648183525063;Fritsche et al. (2020);Experiment 3;Orientation
1;6;24;119;119.246260862977;1.06775076571466;2;23;0.246260862976584;Fritsche et al. (2020);Experiment 3;Orientation
1;6;25;137;170.187686525608;1.90096969142905;2;-18;33.1876865256083;Fritsche et al. (2020);Experiment 3;Orientation
1;6;26;103;104.28745745533;1.61779712000134;1;34;1.28745745533021;Fritsche et al. (2020);Experiment 3;Orientation
1;6;27;83;82.9972615483786;2.33432173714209;2;20;-0.00273845162143971;Fritsche et al. (2020);Experiment 3;Orientation
1;6;28;158;156.668906637861;2.20101522285768;2;-75;-1.33109336213914;Fritsche et al. (2020);Experiment 3;Orientation
1;6;29;99;96.8313681941181;2.88434870857236;2;59;-2.16863180588189;Fritsche et al. (2020);Experiment 3;Orientation
1;6;30;62;64.9226472057792;2.03443785142917;1;37;2.92264720577924;Fritsche et al. (2020);Experiment 3;Orientation
1;6;31;175;169.851955612839;1.75123565714239;2;67;-5.14804438716072;Fritsche et al. (2020);Experiment 3;Orientation
1;6;32;100;99.1925043077096;1.33456237714381;1;75;-0.80749569229036;Fritsche et al. (2020);Experiment 3;Orientation
1;6;33;133;116.428645318374;2.15097819428593;2;-33;-16.5713546816264;Fritsche et al. (2020);Experiment 3;Orientation
1;6;34;118;100.27305686051;1.6677057828565;2;15;-17.7269431394902;Fritsche et al. (2020);Experiment 3;Orientation
1;6;35;78;65.7991629622087;1.0677324799999;2;40;-12.2008370377913;Fritsche et al. (2020);Experiment 3;Orientation
1;6;36;94;101.340930745623;1.45109467428483;2;-16;7.34093074562257;Fritsche et al. (2020);Experiment 3;Orientation
1;6;37;162;169.075325289409;2.23429339428549;2;-68;7.07532528940942;Fritsche et al. (2020);Experiment 3;Orientation
1;6;38;74;68.2661145777073;1.26772077714304;2;88;-5.73388542229273;Fritsche et al. (2020);Experiment 3;Orientation
1;6;39;37;30.6694964971344;1.13444059428548;2;37;-6.33050350286562;Fritsche et al. (2020);Experiment 3;Orientation
1;6;40;20;17.4952310680837;NaN;2;17;-2.50476893191626;Fritsche et al. (2020);Experiment 3;Orientation
1;6;41;59;56.7067400444798;2.13431039999887;2;-39;-2.29325995552018;Fritsche et al. (2020);Experiment 3;Orientation
1;6;42;103;105.878831400172;1.984426788571;1;-44;2.87883140017215;Fritsche et al. (2020);Experiment 3;Orientation
1;6;43;69;66.1018801139405;2.73438171428461;1;34;-2.89811988605946;Fritsche et al. (2020);Experiment 3;Orientation
1;6;44;166;159.74234093429;1.90100150857143;2;83;-6.25765906571041;Fritsche et al. (2020);Experiment 3;Orientation
1;6;45;30;11.0824608863808;2.51765979428637;2;-44;-18.9175391136192;Fritsche et al. (2020);Experiment 3;Orientation
1;6;46;127;151.473706336576;2.4009610971425;2;83;24.4737063365764;Fritsche et al. (2020);Experiment 3;Orientation
1;6;47;118;114.614107549836;0.984400457144147;1;9;-3.38589245016395;Fritsche et al. (2020);Experiment 3;Orientation
1;6;48;87;69.1795699365123;1.33436233142857;1;31;-17.8204300634877;Fritsche et al. (2020);Experiment 3;Orientation
1;6;49;145;152.865598923564;1.81776822857137;1;-58;7.86559892356402;Fritsche et al. (2020);Experiment 3;Orientation
1;6;50;151;156.326791535961;1.26771236571585;2;-6;5.32679153596104;Fritsche et al. (2020);Experiment 3;Orientation
1;6;51;106;102.491768957864;1.10111122285707;1;45;-3.50823104213622;Fritsche et al. (2020);Experiment 3;Orientation
1;6;52;22;14.319967665893;1.71741476571515;1;84;-7.68003233410695;Fritsche et al. (2020);Experiment 3;Orientation
1;6;53;160;172.350375339368;1.90108306285583;2;42;12.3503753393685;Fritsche et al. (2020);Experiment 3;Orientation
1;6;54;63;65.7931390672386;1.65112612571284;1;-83;2.79313906723858;Fritsche et al. (2020);Experiment 3;Orientation
1;6;55;131;135.836525318001;1.0678114742841;1;-68;4.83652531800112;Fritsche et al. (2020);Experiment 3;Orientation
1;6;56;83;74.049417766584;2.38437485714348;1;48;-8.950582233416;Fritsche et al. (2020);Experiment 3;Orientation
1;6;57;72;68.3739462886945;1.25102665142913;2;11;-3.6260537113055;Fritsche et al. (2020);Experiment 3;Orientation
1;6;58;158;166.934050561016;2.01783186285684;1;-86;8.93405056101585;Fritsche et al. (2020);Experiment 3;Orientation
1;6;59;54;56.3953601535419;2.20103570285755;2;-76;2.39536015354192;Fritsche et al. (2020);Experiment 3;Orientation
1;6;60;74;72.2504514391207;0.884349440000733;2;-20;-1.74954856087932;Fritsche et al. (2020);Experiment 3;Orientation
1;6;61;25;34.6413832977635;1.10112256000139;1;49;9.64138329776355;Fritsche et al. (2020);Experiment 3;Orientation
1;6;62;26;13.0972218956325;1.01778614857176;1;-1;-12.9027781043675;Fritsche et al. (2020);Experiment 3;Orientation
1;6;63;66;57.0685544764427;1.06768530285626;2;-40;-8.93144552355729;Fritsche et al. (2020);Experiment 3;Orientation
1;6;64;53;22.6138256411461;2.30108342857056;1;13;-30.3861743588539;Fritsche et al. (2020);Experiment 3;Orientation
1;6;65;66;63.770164715856;2.11776036571428;2;-13;-2.22983528414402;Fritsche et al. (2020);Experiment 3;Orientation
1;6;66;143;151.732108912326;1.43447369142814;2;-77;8.73210891232588;Fritsche et al. (2020);Experiment 3;Orientation
1;6;67;101;106.680011836429;2.26767908571492;1;42;5.68001183642929;Fritsche et al. (2020);Experiment 3;Orientation
1;6;68;45;41.7326733705482;0.884442331429454;1;56;-3.26732662945182;Fritsche et al. (2020);Experiment 3;Orientation
1;6;69;109;114.802906769806;1.81773165714185;2;-64;5.80290676980647;Fritsche et al. (2020);Experiment 3;Orientation
1;6;70;123;111.72229136896;2.06791094857181;1;-14;-11.2777086310397;Fritsche et al. (2020);Experiment 3;Orientation
1;6;71;139;142.050411944629;1.71767990857188;2;-16;3.05041194462865;Fritsche et al. (2020);Experiment 3;Orientation
1;6;72;145;137.713111835502;1.41771702857113;2;-6;-7.28688816449801;Fritsche et al. (2020);Experiment 3;Orientation
1;6;73;84;77.4499595141769;1.48442770285692;2;61;-6.55004048582308;Fritsche et al. (2020);Experiment 3;Orientation
1;6;74;28;16.9088758080701;2.10096054857058;2;56;-11.0911241919299;Fritsche et al. (2020);Experiment 3;Orientation
1;6;75;58;37.8525153249897;1.88445440000032;1;-30;-20.1474846750103;Fritsche et al. (2020);Experiment 3;Orientation
1;6;76;114;122.640449840221;1.26785645714335;1;-56;8.6404498402207;Fritsche et al. (2020);Experiment 3;Orientation
1;6;77;73;70.3114899851466;2.03447259428503;1;41;-2.68851001485342;Fritsche et al. (2020);Experiment 3;Orientation
1;6;78;179;175.287301240673;2.00105069714118;2;74;-3.71269875932654;Fritsche et al. (2020);Experiment 3;Orientation
1;6;79;160;170.384157993287;2.01771775999987;1;19;10.3841579932873;Fritsche et al. (2020);Experiment 3;Orientation
1;6;80;29;20.0296836031314;2.25096996571483;2;-49;-8.97031639686863;Fritsche et al. (2020);Experiment 3;Orientation
1;6;81;165;153.503371418435;2.81773787428574;1;44;-11.4966285815647;Fritsche et al. (2020);Experiment 3;Orientation
1;6;82;122;128.436410335074;1.43455634285601;1;43;6.4364103350739;Fritsche et al. (2020);Experiment 3;Orientation
1;6;83;77;69.5501402792453;2.33453165714309;1;45;-7.44985972075472;Fritsche et al. (2020);Experiment 3;Orientation
1;6;84;114;110.623584176172;1.71773293714432;1;-37;-3.37641582382788;Fritsche et al. (2020);Experiment 3;Orientation
1;6;85;34;19.7526669502506;1.75118957714403;1;80;-14.2473330497494;Fritsche et al. (2020);Experiment 3;Orientation
1;6;86;114;101.13784748338;2.51771757714414;1;-80;-12.8621525166195;Fritsche et al. (2020);Experiment 3;Orientation
1;6;87;59;58.1962231302167;2.1842691657148;2;55;-0.803776869783263;Fritsche et al. (2020);Experiment 3;Orientation
1;6;88;161;171.683532684039;1.25121865142864;1;78;10.6835326840392;Fritsche et al. (2020);Experiment 3;Orientation
1;6;89;139;143.667447737266;1.61756269714351;2;22;4.66744773726623;Fritsche et al. (2020);Experiment 3;Orientation
1;6;90;127;120.499746025875;2.18448969142992;1;12;-6.5002539741254;Fritsche et al. (2020);Experiment 3;Orientation
1;6;91;64;58.0706516664096;1.96759296000164;2;63;-5.92934833359035;Fritsche et al. (2020);Experiment 3;Orientation
1;6;92;108;111.969930709419;1.86766482285748;2;-44;3.9699307094194;Fritsche et al. (2020);Experiment 3;Orientation
1;6;93;28;27.341152103554;2.1509789257143;2;80;-0.658847896446005;Fritsche et al. (2020);Experiment 3;Orientation
1;6;94;179;8.53562220346498;1.71768576000068;1;29;9.53562220346498;Fritsche et al. (2020);Experiment 3;Orientation
1;6;95;97;98.4369275838026;1.23446235428491;1;82;1.43692758380264;Fritsche et al. (2020);Experiment 3;Orientation
1;6;96;86;68.7118283195549;1.63442980571563;2;11;-17.2881716804451;Fritsche et al. (2020);Experiment 3;Orientation
1;6;97;132;111.773486918312;1.86774930285719;2;-46;-20.2265130816878;Fritsche et al. (2020);Experiment 3;Orientation
1;6;98;141;135.842470567651;2.2344093257143;1;-9;-5.15752943234921;Fritsche et al. (2020);Experiment 3;Orientation
1;6;99;3;179.697271572873;2.03452013714195;1;-42;-3.30272842712697;Fritsche et al. (2020);Experiment 3;Orientation
1;6;100;60;49.1481856007381;1.76768950857149;1;-57;-10.8518143992619;Fritsche et al. (2020);Experiment 3;Orientation
1;6;101;147;146.990677678784;1.75104950857167;2;-87;-0.00932232121601828;Fritsche et al. (2020);Experiment 3;Orientation
1;1;1;88;72.2563400115839;1.54214791284653;2;59;-15.7436599884161;Fritsche et al. (2020);Experiment 3;Orientation
1;1;2;57;57.9504879657102;1.86772937623482;2;31;0.950487965710202;Fritsche et al. (2020);Experiment 3;Orientation
1;1;3;14;10.5652986492455;1.46778993809949;1;43;-3.43470135075449;Fritsche et al. (2020);Experiment 3;Orientation
1;1;4;137;152.068178812556;2.15108759015698;2;57;15.068178812556;Fritsche et al. (2020);Experiment 3;Orientation
1;1;5;27;18.9652325445508;1.35113264584379;1;-70;-8.03476745544921;Fritsche et al. (2020);Experiment 3;Orientation
1;1;6;59;65.2231643918561;1.81773840931487;2;-32;6.22316439185609;Fritsche et al. (2020);Experiment 3;Orientation
1;1;7;108;110.904229092579;1.81762833007974;2;-49;2.90422909257859;Fritsche et al. (2020);Experiment 3;Orientation
1;1;8;123;99.4025429469731;1.41820710548654;1;-15;-23.5974570530269;Fritsche et al. (2020);Experiment 3;Orientation
1;1;9;152;152.427734657456;2.03426682475174;2;-29;0.427734657456369;Fritsche et al. (2020);Experiment 3;Orientation
1;1;10;151;163.335150512093;2.08434885389579;1;1;12.335150512093;Fritsche et al. (2020);Experiment 3;Orientation
1;1;11;156;162.585584803522;1.58445088747271;1;-5;6.58558480352195;Fritsche et al. (2020);Experiment 3;Orientation
1;1;12;103;108.343233561747;1.76775585376504;1;53;5.3432335617475;Fritsche et al. (2020);Experiment 3;Orientation
1;1;13;32;8.40070214228713;2.26756714650492;2;71;-23.5992978577129;Fritsche et al. (2020);Experiment 3;Orientation
1;1;14;49;54.0566612440863;2.36765257676825;1;-17;5.05666124408627;Fritsche et al. (2020);Experiment 3;Orientation
1;1;15;41;35.6166876113065;1.4011038643298;1;8;-5.38331238869347;Fritsche et al. (2020);Experiment 3;Orientation
1;1;16;135;144.394430131049;2.38442228881422;2;86;9.39443013104926;Fritsche et al. (2020);Experiment 3;Orientation
1;1;17;156;156.951211778255;1.31774060358521;2;-21;0.951211778255185;Fritsche et al. (2020);Experiment 3;Orientation
1;1;18;104;104.327561271214;1.75095578764444;2;52;0.327561271214108;Fritsche et al. (2020);Experiment 3;Orientation
1;1;19;155;167.775777937996;1.26763297461889;2;-51;12.7757779379965;Fritsche et al. (2020);Experiment 3;Orientation
1;1;20;158;168.08866666183;1.58437811083559;2;-3;10.0886666618304;Fritsche et al. (2020);Experiment 3;Orientation
1;1;21;38;15.0474879267318;1.61770761638581;2;-60;-22.9525120732682;Fritsche et al. (2020);Experiment 3;Orientation
1;1;22;156;154.48482902303;2.41757990984479;2;62;-1.51517097697004;Fritsche et al. (2020);Experiment 3;Orientation
1;1;23;126;133.537187196116;1.25116826616795;1;30;7.53718719611553;Fritsche et al. (2020);Experiment 3;Orientation
1;1;24;157;167.313614336713;1.66779586262987;1;-31;10.3136143367129;Fritsche et al. (2020);Experiment 3;Orientation
1;1;25;18;7.88230879124262;2.16779330264785;1;-41;-10.1176912087574;Fritsche et al. (2020);Experiment 3;Orientation
1;1;26;11;14.0601917450749;1.2010759970949;2;7;3.06019174507492;Fritsche et al. (2020);Experiment 3;Orientation
1;1;27;145;167.192944488666;1.26760262054404;2;46;22.1929444886663;Fritsche et al. (2020);Experiment 3;Orientation
1;1;28;10;17.212202259769;1.25116460905042;1;-45;7.21220225976899;Fritsche et al. (2020);Experiment 3;Orientation
1;1;29;75;78.0674073060837;1.88436487207036;1;-65;3.06740730608367;Fritsche et al. (2020);Experiment 3;Orientation
1;1;30;101;102.94369980809;2.0343886067626;1;-26;1.94369980809044;Fritsche et al. (2020);Experiment 3;Orientation
1;1;31;0;2.36039717889102;2.38437547771127;1;-79;2.36039717889102;Fritsche et al. (2020);Experiment 3;Orientation
1;1;32;136;128.260368163824;1.61780672426903;1;44;-7.73963183617639;Fritsche et al. (2020);Experiment 3;Orientation
1;1;33;47;20.6825842514725;1.83446240739295;1;89;-26.3174157485275;Fritsche et al. (2020);Experiment 3;Orientation
1;1;34;105;107.21204657128;2.10107468053275;1;-58;2.21204657127993;Fritsche et al. (2020);Experiment 3;Orientation
1;1;35;141;118.446447975425;1.43440447865214;2;-36;-22.5535520245753;Fritsche et al. (2020);Experiment 3;Orientation
1;1;36;86;71.8987356003474;2.41767426347496;1;55;-14.1012643996526;Fritsche et al. (2020);Experiment 3;Orientation
1;1;37;55;50.6836224030124;2.46775446406036;1;31;-4.31637759698757;Fritsche et al. (2020);Experiment 3;Orientation
1;1;38;46;42.3351005568285;2.01759804914764;2;9;-3.66489944317146;Fritsche et al. (2020);Experiment 3;Orientation
1;1;39;157;166.496889831728;2.73435320586577;1;69;9.49688983172794;Fritsche et al. (2020);Experiment 3;Orientation
1;1;40;131;140.90230331548;2.23434296593678;1;26;9.90230331547988;Fritsche et al. (2020);Experiment 3;Orientation
1;1;41;26;14.6922174737597;1.06779162037401;2;-75;-11.3077825262403;Fritsche et al. (2020);Experiment 3;Orientation
1;1;42;131;145.562178607469;1.86770560497143;1;75;14.5621786074687;Fritsche et al. (2020);Experiment 3;Orientation
1;1;43;12;4.37279230114818;2.46753796270741;2;-61;-7.62720769885182;Fritsche et al. (2020);Experiment 3;Orientation
1;1;44;136;127.266888977901;2.56782014588953;1;56;-8.73311102209939;Fritsche et al. (2020);Experiment 3;Orientation
1;1;45;46;52.0418788809264;1.33441925340685;1;90;6.04187888092639;Fritsche et al. (2020);Experiment 3;Orientation
1;1;46;36;27.7030598442482;1.36787748949109;1;10;-8.29694015575176;Fritsche et al. (2020);Experiment 3;Orientation
1;1;47;117;116.911834883815;2.26781839047362;1;-81;-0.0881651161847401;Fritsche et al. (2020);Experiment 3;Orientation
1;1;48;44;19.7271765463365;1.15112196706104;1;73;-24.2728234536635;Fritsche et al. (2020);Experiment 3;Orientation
1;1;49;43;12.7272996392957;1.21781572077771;1;1;-30.2727003607043;Fritsche et al. (2020);Experiment 3;Orientation
1;1;50;97;110.791189694534;1.80090469771358;2;-54;13.7911896945343;Fritsche et al. (2020);Experiment 3;Orientation
1;1;51;10;22.2181655906547;2.00093805062488;2;87;12.2181655906547;Fritsche et al. (2020);Experiment 3;Orientation
1;1;52;99;100.525208965533;2.51774250528615;1;-89;1.52520896553321;Fritsche et al. (2020);Experiment 3;Orientation
1;1;53;64;71.2877463191203;2.26777706504618;1;35;7.28774631912026;Fritsche et al. (2020);Experiment 3;Orientation
1;1;54;106;101.193653312945;1.85121749096879;2;-42;-4.80634668705488;Fritsche et al. (2020);Experiment 3;Orientation
1;1;55;23;23.1388163702941;2.71764785908681;1;83;0.138816370294137;Fritsche et al. (2020);Experiment 3;Orientation
1;1;56;3;15.9650953000774;NaN;2;20;12.9650953000774;Fritsche et al. (2020);Experiment 3;Orientation
1;1;57;56;50.6672152854846;2.33437390515064;2;-53;-5.33278471451545;Fritsche et al. (2020);Experiment 3;Orientation
1;1;58;88;90.0858379352651;1.86776741025642;1;-32;2.08583793526506;Fritsche et al. (2020);Experiment 3;Orientation
1;1;59;38;15.5224662091765;2.46764438482523;2;50;-22.4775337908235;Fritsche et al. (2020);Experiment 3;Orientation
1;1;60;118;114.804027397123;1.23431005188013;2;-80;-3.19597260287671;Fritsche et al. (2020);Experiment 3;Orientation
1;1;61;167;173.588135662257;2.35101415523877;1;-49;6.5881356622574;Fritsche et al. (2020);Experiment 3;Orientation
1;1;62;119;104.469647870066;2.50097754749322;2;48;-14.5303521299342;Fritsche et al. (2020);Experiment 3;Orientation
1;1;63;175;0.483140938233888;2.01768106571353;2;-56;5.48314093823387;Fritsche et al. (2020);Experiment 3;Orientation
1;1;64;106;97.1212449789794;1.75108268961958;2;69;-8.87875502102055;Fritsche et al. (2020);Experiment 3;Orientation
1;1;65;68;72.6393718816828;1.45100486616047;2;38;4.63937188168282;Fritsche et al. (2020);Experiment 3;Orientation
1;1;66;173;170.6999056056;2.65103346481874;1;75;-2.30009439439971;Fritsche et al. (2020);Experiment 3;Orientation
1;1;67;165;175.586939519528;1.55104458245614;1;8;10.5869395195278;Fritsche et al. (2020);Experiment 3;Orientation
1;1;68;177;176.754379446687;2.16767188634822;1;-12;-0.245620553313131;Fritsche et al. (2020);Experiment 3;Orientation
1;1;69;94;100.236598770004;2.85091797304995;2;83;6.23659877000435;Fritsche et al. (2020);Experiment 3;Orientation
1;1;70;43;13.0306216729792;1.21772648711203;2;51;-29.9693783270208;Fritsche et al. (2020);Experiment 3;Orientation
1;1;71;49;64.5885844504487;1.4843914227431;2;-6;15.5885844504487;Fritsche et al. (2020);Experiment 3;Orientation
1;1;72;10;5.667880983313;2.00110664373915;1;39;-4.332119016687;Fritsche et al. (2020);Experiment 3;Orientation
1;1;73;105;98.8541471529158;2.21776086401587;1;85;-6.14585284708423;Fritsche et al. (2020);Experiment 3;Orientation
1;1;74;142;144.059251161866;2.21774879552868;1;-37;2.05925116186589;Fritsche et al. (2020);Experiment 3;Orientation
1;1;75;125;102.806229718493;1.91776130287008;2;17;-22.1937702815073;Fritsche et al. (2020);Experiment 3;Orientation
1;1;76;151;154.145525289128;1.88443838013109;1;-26;3.14552528912816;Fritsche et al. (2020);Experiment 3;Orientation
1;1;77;41;21.4839249640611;1.48430621190664;2;-70;-19.5160750359389;Fritsche et al. (2020);Experiment 3;Orientation
1;1;78;157;169.133292776934;1.16779439978291;2;64;12.1332927769341;Fritsche et al. (2020);Experiment 3;Orientation
1;1;79;164;171.849224363699;1.28432479006324;2;-7;7.84922436369874;Fritsche et al. (2020);Experiment 3;Orientation
1;1;80;69;56.7466197755651;2.16774539440894;1;-85;-12.2533802244349;Fritsche et al. (2020);Experiment 3;Orientation
1;1;81;147;166.784354643217;1.78414339703795;1;-78;19.7843546432172;Fritsche et al. (2020);Experiment 3;Orientation
1;1;82;98;107.939672378898;1.75093677063387;2;49;9.93967237889795;Fritsche et al. (2020);Experiment 3;Orientation
1;1;83;139;167.550409508574;1.00103971849012;2;-41;28.5504095085738;Fritsche et al. (2020);Experiment 3;Orientation
1;1;84;52;48.1228925098288;1.20105807721939;2;87;-3.87710749017125;Fritsche et al. (2020);Experiment 3;Orientation
1;1;85;29;19.9516838679832;2.08442784763247;1;23;-9.04831613201679;Fritsche et al. (2020);Experiment 3;Orientation
1;1;86;45;22.6446053338255;1.41774009158871;2;-16;-22.3553946661745;Fritsche et al. (2020);Experiment 3;Orientation
1;1;87;32;9.25349881955333;2.40103437909829;1;13;-22.7465011804467;Fritsche et al. (2020);Experiment 3;Orientation
1;1;88;133;158.336512896564;1.5176525401971;2;79;25.3365128965637;Fritsche et al. (2020);Experiment 3;Orientation
1;1;89;31;15.9813789808189;1.16792130175827;1;-78;-15.0186210191811;Fritsche et al. (2020);Experiment 3;Orientation
1;1;90;35;11.3467189928475;1.30098990855004;2;-4;-23.6532810071525;Fritsche et al. (2020);Experiment 3;Orientation
1;1;91;88;87.3034678390324;1.65095812819936;2;-53;-0.696532160967635;Fritsche et al. (2020);Experiment 3;Orientation
1;1;92;109;100.009397539529;1.08435397386029;2;-21;-8.99060246047102;Fritsche et al. (2020);Experiment 3;Orientation
1;1;93;145;134.155808128593;1.06780771169042;1;-36;-10.8441918714073;Fritsche et al. (2020);Experiment 3;Orientation
1;1;94;53;27.998159688487;1.93432036495096;2;-88;-25.001840311513;Fritsche et al. (2020);Experiment 3;Orientation
1;1;95;124;129.795876333504;1.05099594279363;2;-71;5.79587633350391;Fritsche et al. (2020);Experiment 3;Orientation
1;1;96;73;67.5807032466895;1.33446825878036;2;51;-5.41929675331046;Fritsche et al. (2020);Experiment 3;Orientation
1;1;97;115;107.967839158873;1.23443622243167;1;-42;-7.03216084112695;Fritsche et al. (2020);Experiment 3;Orientation
1;1;98;85;82.860126787038;1.25108927243082;1;30;-2.13987321296203;Fritsche et al. (2020);Experiment 3;Orientation
1;1;99;39;27.148828253946;1.93430025080534;2;46;-11.851171746054;Fritsche et al. (2020);Experiment 3;Orientation
1;1;100;3;9.28980545073473;1.85107815479432;1;36;6.28980545073473;Fritsche et al. (2020);Experiment 3;Orientation
1;1;101;136;168.818519331443;2.26761907757236;2;47;32.8185193314427;Fritsche et al. (2020);Experiment 3;Orientation
1;2;1;63;61.2107683229472;1.9677003387219;2;73;-1.78923167705285;Fritsche et al. (2020);Experiment 3;Orientation
1;2;2;31;30.1475596585376;1.75116826616795;1;32;-0.852440341462376;Fritsche et al. (2020);Experiment 3;Orientation
1;2;3;104;104.038100171195;1.6010765090914;2;-73;0.0381001711949693;Fritsche et al. (2020);Experiment 3;Orientation
1;2;4;20;17.4651088055326;1.83386300584334;2;84;-2.53489119446742;Fritsche et al. (2020);Experiment 3;Orientation
1;2;5;159;165.795578474851;1.18435858182829;2;41;6.79557847485145;Fritsche et al. (2020);Experiment 3;Orientation
1;2;6;4;179.332517302364;1.73442415394402;2;-25;-4.66748269763551;Fritsche et al. (2020);Experiment 3;Orientation
1;2;7;77;69.1047404564088;2.51767814001914;1;-73;-7.89525954359118;Fritsche et al. (2020);Experiment 3;Orientation
1;2;8;46;56.163976416455;2.05111443339911;1;31;10.163976416455;Fritsche et al. (2020);Experiment 3;Orientation
1;2;9;93;92.7666877496417;1.81778778040007;1;-47;-0.233312250358296;Fritsche et al. (2020);Experiment 3;Orientation
1;2;10;110;127.2119251316;2.95296764109298;1;-17;17.2119251315995;Fritsche et al. (2020);Experiment 3;Orientation
1;2;11;39;15.7864553938744;1.46783857776154;1;71;-23.2135446061256;Fritsche et al. (2020);Experiment 3;Orientation
1;2;12;103;106.848803469036;1.25117814038504;1;-64;3.84880346903594;Fritsche et al. (2020);Experiment 3;Orientation
1;2;13;108;104.335179713206;1.95093794091144;2;-5;-3.66482028679438;Fritsche et al. (2020);Experiment 3;Orientation
1;2;14;126;115.434561428393;1.75103990134539;2;-18;-10.5654385716074;Fritsche et al. (2020);Experiment 3;Orientation
1;2;15;22;8.9477103722208;1.88442009454411;2;-76;-13.0522896277792;Fritsche et al. (2020);Experiment 3;Orientation
1;2;16;16;12.6372303052858;2.23441574257413;1;6;-3.36276969471422;Fritsche et al. (2020);Experiment 3;Orientation
1;2;17;51;56.913300799488;1.61767287377006;2;-35;5.91330079948805;Fritsche et al. (2020);Experiment 3;Orientation
1;2;18;66;65.6627321623916;2.6008947503542;2;-15;-0.337267837608422;Fritsche et al. (2020);Experiment 3;Orientation
1;2;19;56;57.1273732949055;2.21771807574169;1;10;1.12737329490552;Fritsche et al. (2020);Experiment 3;Orientation
1;2;20;94;102.879292901962;1.88438023196341;2;-38;8.87929290196216;Fritsche et al. (2020);Experiment 3;Orientation
1;2;21;162;175.92109219579;2.2510088158474;2;-68;13.92109219579;Fritsche et al. (2020);Experiment 3;Orientation
1;2;22;173;170.366312419178;1.45116577932822;1;-11;-2.63368758082231;Fritsche et al. (2020);Experiment 3;Orientation
1;2;23;101;111.288644112558;1.36771438205324;1;72;10.288644112558;Fritsche et al. (2020);Experiment 3;Orientation
1;2;24;51;21.6689606294988;1.31780314029356;1;50;-29.3310393705012;Fritsche et al. (2020);Experiment 3;Orientation
1;2;25;178;2.18839203111735;2.26763626602451;2;53;4.18839203111736;Fritsche et al. (2020);Experiment 3;Orientation
1;2;26;95;100.517754227673;2.03436300694057;1;83;5.51775422767307;Fritsche et al. (2020);Experiment 3;Orientation
1;2;27;47;176.403769466675;1.88437950054049;2;48;-50.5962305333253;Fritsche et al. (2020);Experiment 3;Orientation
1;2;28;84;76.9456420911175;1.80113253613035;1;-37;-7.05435790888251;Fritsche et al. (2020);Experiment 3;Orientation
1;2;29;93;108.982045946913;1.76776499655853;2;-9;15.9820459469129;Fritsche et al. (2020);Experiment 3;Orientation
1;2;30;134;166.51154734918;1.90104023048616;1;-41;32.5115473491799;Fritsche et al. (2020);Experiment 3;Orientation
1;2;31;67;64.2816378114298;2.20108404275288;1;67;-2.71836218857015;Fritsche et al. (2020);Experiment 3;Orientation
1;2;32;113;145.423372574212;1.40116749817344;2;-46;32.4233725742124;Fritsche et al. (2020);Experiment 3;Orientation
1;2;33;120;114.948935276112;1.43446957534252;1;-7;-5.05106472388832;Fritsche et al. (2020);Experiment 3;Orientation
1;2;34;51;37.6046356089143;2.51769605989466;1;69;-13.3953643910857;Fritsche et al. (2020);Experiment 3;Orientation
1;2;35;7;5.05685087687064;1.31771024951058;2;44;-1.94314912312936;Fritsche et al. (2020);Experiment 3;Orientation
1;2;36;176;162.940707655402;1.81809680682454;2;11;-13.0592923445976;Fritsche et al. (2020);Experiment 3;Orientation
1;2;37;145;173.009759171618;2.01780760197698;1;31;28.0097591716184;Fritsche et al. (2020);Experiment 3;Orientation
1;2;38;151;175.084501165333;1.1844470840706;1;-6;24.0845011653332;Fritsche et al. (2020);Experiment 3;Orientation
1;2;39;71;59.7392762499691;1.58435068245444;2;80;-11.2607237500309;Fritsche et al. (2020);Experiment 3;Orientation
1;2;40;22;18.1444675480626;1.46768241884683;2;49;-3.85553245193741;Fritsche et al. (2020);Experiment 3;Orientation
1;2;41;96;106.690480891705;1.35102658943788;2;-74;10.6904808917051;Fritsche et al. (2020);Experiment 3;Orientation
1;2;42;118;108.754680309913;0.951208933313865;2;-22;-9.2453196900871;Fritsche et al. (2020);Experiment 3;Orientation
1;2;43;145;148.806310775678;1.90104717900931;1;-27;3.80631077567838;Fritsche et al. (2020);Experiment 3;Orientation
1;2;44;161;166.11369989617;0.95111531110706;1;-16;5.11369989616975;Fritsche et al. (2020);Experiment 3;Orientation
1;2;45;65;57.4680403850152;1.76765638017059;2;-84;-7.53195961498477;Fritsche et al. (2020);Experiment 3;Orientation
1;2;46;132;117.785761229187;1.31778156330074;1;-67;-14.2142387708132;Fritsche et al. (2020);Experiment 3;Orientation
1;2;47;82;62.4815276804572;1.05110931343506;1;50;-19.5184723195428;Fritsche et al. (2020);Experiment 3;Orientation
1;2;48;149;163.473422652328;1.51770117985916;2;-67;14.473422652328;Fritsche et al. (2020);Experiment 3;Orientation
1;2;49;132;157.892379335694;2.1010421321871;1;17;25.8923793356942;Fritsche et al. (2020);Experiment 3;Orientation
1;2;50;48;33.1520768580443;1.06780442028503;1;84;-14.8479231419557;Fritsche et al. (2020);Experiment 3;Orientation
1;2;51;151;167.615543071504;1.53445626343546;1;77;16.6155430715039;Fritsche et al. (2020);Experiment 3;Orientation
1;2;52;127;148.635109745814;1.03446577194063;1;24;21.6351097458139;Fritsche et al. (2020);Experiment 3;Orientation
1;2;53;12;15.6020149851366;1.26779059638056;1;-65;3.60201498513662;Fritsche et al. (2020);Experiment 3;Orientation
1;2;54;112;129.096938589764;1.73438575421096;1;80;17.0969385897637;Fritsche et al. (2020);Experiment 3;Orientation
1;2;55;55;51.0904806854119;1.73433967453138;2;57;-3.90951931458812;Fritsche et al. (2020);Experiment 3;Orientation
1;2;56;32;29.7225959086631;1.96765572188906;2;23;-2.27740409133686;Fritsche et al. (2020);Experiment 3;Orientation
1;2;57;177;177.498626613386;1.95107471710389;2;35;0.498626613386477;Fritsche et al. (2020);Experiment 3;Orientation
1;2;58;11;9.31503452583178;2.76766735152296;1;-14;-1.68496547416822;Fritsche et al. (2020);Experiment 3;Orientation
1;2;59;44;35.5541545983529;1.68441855855463;1;-33;-8.44584540164712;Fritsche et al. (2020);Experiment 3;Orientation
1;2;60;177;177.19097472219;1.68440539293169;1;47;0.190974722189537;Fritsche et al. (2020);Experiment 3;Orientation
1;2;61;95;103.344532696845;1.30101185125523;2;82;8.34453269684491;Fritsche et al. (2020);Experiment 3;Orientation
1;2;62;106;100.160644772688;1.26769404848028;2;-11;-5.83935522731188;Fritsche et al. (2020);Experiment 3;Orientation
1;2;63;49;17.9220045562135;1.33432014552363;2;57;-31.0779954437865;Fritsche et al. (2020);Experiment 3;Orientation
1;2;64;171;178.353807022968;1.6170939520789;2;58;7.35380702296774;Fritsche et al. (2020);Experiment 3;Orientation
1;2;65;66;54.7976286395681;1.46778957238757;1;-75;-11.2023713604319;Fritsche et al. (2020);Experiment 3;Orientation
1;2;66;24;6.28078592222936;2.00099912448604;2;42;-17.7192140777706;Fritsche et al. (2020);Experiment 3;Orientation
1;2;67;152;165.275454544708;2.01775018523313;1;52;13.2754545447078;Fritsche et al. (2020);Experiment 3;Orientation
1;2;68;146;172.737424953558;1.93432036495096;2;6;26.7374249535583;Fritsche et al. (2020);Experiment 3;Orientation
1;2;69;118;138.818483421247;1.3010681708638;2;28;20.8184834212466;Fritsche et al. (2020);Experiment 3;Orientation
1;2;70;60;66.4884441532809;1.70099407766384;2;58;6.48844415328091;Fritsche et al. (2020);Experiment 3;Orientation
1;2;71;28;21.2569842550454;1.65097312238095;2;32;-6.74301574495459;Fritsche et al. (2020);Experiment 3;Orientation
1;2;72;129;118.225293362317;1.60108162905544;1;79;-10.7747066376826;Fritsche et al. (2020);Experiment 3;Orientation
1;2;73;141;150.284566343638;1.11777856446406;2;-12;9.28456634363837;Fritsche et al. (2020);Experiment 3;Orientation
1;2;74;86;76.8684276987589;1.78438440107766;1;55;-9.13157230124112;Fritsche et al. (2020);Experiment 3;Orientation
1;2;75;19;16.5288829476614;2.05109102784763;1;67;-2.47111705233858;Fritsche et al. (2020);Experiment 3;Orientation
1;2;76;101;96.3999620135928;1.51766424297284;2;-82;-4.60003798640724;Fritsche et al. (2020);Experiment 3;Orientation
1;2;77;153;161.148564260632;1.80095809162822;2;-52;8.14856426063227;Fritsche et al. (2020);Experiment 3;Orientation
1;2;78;20;20.1692239489211;2.11769189078086;1;-47;0.169223948921143;Fritsche et al. (2020);Experiment 3;Orientation
1;2;79;9;3.51179011002723;2.70095531221932;2;11;-5.48820988997277;Fritsche et al. (2020);Experiment 3;Orientation
1;2;80;140;154.981926575514;1.56772615797126;2;49;14.9819265755136;Fritsche et al. (2020);Experiment 3;Orientation
1;2;81;83;86.7268938398728;1.1845546033237;1;57;3.7268938398728;Fritsche et al. (2020);Experiment 3;Orientation
1;2;82;115;108.103127080841;2.38436743205239;2;-32;-6.89687291915938;Fritsche et al. (2020);Experiment 3;Orientation
1;2;83;53;68.5013387554935;2.78425420769645;2;62;15.5013387554935;Fritsche et al. (2020);Experiment 3;Orientation
1;2;84;39;36.5005741815599;1.4344169128517;2;14;-2.49942581844012;Fritsche et al. (2020);Experiment 3;Orientation
1;2;85;30;29.3781392103898;1.06777552905714;2;9;-0.621860789610203;Fritsche et al. (2020);Experiment 3;Orientation
1;2;86;26;22.3928323785936;1.93438436450651;1;4;-3.60716762140645;Fritsche et al. (2020);Experiment 3;Orientation
1;2;87;134;158.099699613609;1.30106049091683;2;72;24.0996996136092;Fritsche et al. (2020);Experiment 3;Orientation
1;2;88;58;53.3001824500995;2.83444704749945;1;76;-4.69981754990049;Fritsche et al. (2020);Experiment 3;Orientation
1;2;89;75;66.1093949556839;2.43431561069838;1;-17;-8.89060504431615;Fritsche et al. (2020);Experiment 3;Orientation
1;2;90;134;171.340761337536;1.05122853546345;1;-59;37.3407613375357;Fritsche et al. (2020);Experiment 3;Orientation
1;2;91;133;155.854178903864;1.05116526733173;1;1;22.8541789038639;Fritsche et al. (2020);Experiment 3;Orientation
1;2;92;39;16.3553993541407;1.45100706043058;2;-86;-22.6446006458593;Fritsche et al. (2020);Experiment 3;Orientation
1;2;93;145;162.310695588971;1.18441526714878;1;74;17.3106955889715;Fritsche et al. (2020);Experiment 3;Orientation
1;2;94;65;61.9144174993766;1.65100713357333;1;80;-3.08558250062343;Fritsche et al. (2020);Experiment 3;Orientation
1;2;95;119;108.276383564223;2.53445406916489;1;-54;-10.7236164357774;Fritsche et al. (2020);Experiment 3;Orientation
1;2;96;113;116.698403807475;1.35100903527427;2;6;3.69840380747509;Fritsche et al. (2020);Experiment 3;Orientation
1;2;97;162;167.246659276323;1.73424422376547;2;-49;5.24665927632284;Fritsche et al. (2020);Experiment 3;Orientation
1;2;98;80;65.2180026094739;1.70065871999395;1;82;-14.7819973905261;Fritsche et al. (2020);Experiment 3;Orientation
1;2;99;77;74.2406631813372;2.11801079142242;2;3;-2.75933681866277;Fritsche et al. (2020);Experiment 3;Orientation
1;2;100;15;6.98836147669803;1.61779538720475;1;62;-8.01163852330197;Fritsche et al. (2020);Experiment 3;Orientation
1;2;101;64;65.2350120550286;2.70136088654408;2;-49;1.23501205502861;Fritsche et al. (2020);Experiment 3;Orientation
1;3;1;107;94.2405894226509;1.66767444633069;2;-43;-12.7594105773491;Fritsche et al. (2020);Experiment 3;Orientation
1;3;2;4;10.3748025107456;2.18442733563643;1;-77;6.37480251074555;Fritsche et al. (2020);Experiment 3;Orientation
1;3;3;25;15.8076819896304;2.76771635689693;1;-21;-9.19231801036962;Fritsche et al. (2020);Experiment 3;Orientation
1;3;4;60;71.2244574356152;1.73438319422849;2;-35;11.2244574356152;Fritsche et al. (2020);Experiment 3;Orientation
1;3;5;61;42.7929394675086;1.23441098832109;2;-1;-18.2070605324914;Fritsche et al. (2020);Experiment 3;Orientation
1;3;6;19;10.1134552240526;2.36771365062987;1;42;-8.8865447759474;Fritsche et al. (2020);Experiment 3;Orientation
1;3;7;69;59.9750827571875;1.40109106441878;1;-50;-9.02491724281249;Fritsche et al. (2020);Experiment 3;Orientation
1;3;8;132;138.644634041182;2.58440700206347;1;-63;6.64463404118158;Fritsche et al. (2020);Experiment 3;Orientation
1;3;9;100;105.952024954372;2.38426978701682;2;32;5.95202495437221;Fritsche et al. (2020);Experiment 3;Orientation
1;3;10;168;163.092223808872;2.35108327475882;1;-68;-4.90777619112845;Fritsche et al. (2020);Experiment 3;Orientation
1;3;11;86;80.1452449995901;2.0176349860335;2;82;-5.85475500040994;Fritsche et al. (2020);Experiment 3;Orientation
1;3;12;104;100.747444227918;2.45099901477215;1;-18;-3.25255577208247;Fritsche et al. (2020);Experiment 3;Orientation
1;3;13;7;6.39256401669175;2.16760569252256;2;-83;-0.60743598330825;Fritsche et al. (2020);Experiment 3;Orientation
1;3;14;130;107.591471089766;1.96774751553721;2;57;-22.4085289102339;Fritsche et al. (2020);Experiment 3;Orientation
1;3;15;165;166.491022502083;1.96773069279698;1;-35;1.4910225020831;Fritsche et al. (2020);Experiment 3;Orientation
1;3;16;167;170.783553489459;NaN;1;-2;3.7835534894586;Fritsche et al. (2020);Experiment 3;Orientation
1;3;17;128;118.872703696303;0.984435673864027;1;39;-9.12729630369682;Fritsche et al. (2020);Experiment 3;Orientation
1;3;18;32;22.0436584251391;1.71763396204096;2;-84;-9.95634157486091;Fritsche et al. (2020);Experiment 3;Orientation
1;3;19;126;111.789633304962;1.30101879977792;2;86;-14.2103666950383;Fritsche et al. (2020);Experiment 3;Orientation
1;3;20;170;170.551292781845;2.21769576732549;1;-44;0.551292781844609;Fritsche et al. (2020);Experiment 3;Orientation
1;3;21;7;17.8856766739158;1.43453832915111;1;-17;10.8856766739158;Fritsche et al. (2020);Experiment 3;Orientation
1;3;22;118;123.545859124818;2.31763162148536;2;69;5.54585912481846;Fritsche et al. (2020);Experiment 3;Orientation
1;3;23;66;65.0500967691518;2.08434446535466;2;52;-0.94990323084815;Fritsche et al. (2020);Experiment 3;Orientation
1;3;24;100;101.792831816306;1.33448837292644;1;-34;1.79283181630599;Fritsche et al. (2020);Experiment 3;Orientation
1;3;25;115;102.420998515969;2.23437990282309;1;-15;-12.5790014840315;Fritsche et al. (2020);Experiment 3;Orientation
1;3;26;97;96.6832334368504;2.51766863151397;1;18;-0.316766563149628;Fritsche et al. (2020);Experiment 3;Orientation
1;3;27;110;99.332371310921;2.73435503442442;1;-13;-10.667628689079;Fritsche et al. (2020);Experiment 3;Orientation
1;3;28;113;108.085440723169;2.36767415376153;1;-3;-4.91455927683081;Fritsche et al. (2020);Experiment 3;Orientation
1;3;29;165;164.053922438991;2.10106517202712;1;-52;-0.946077561008991;Fritsche et al. (2020);Experiment 3;Orientation
1;3;30;50;49.6155173107502;1.70106758572456;1;-65;-0.384482689249822;Fritsche et al. (2020);Experiment 3;Orientation
1;3;31;122;109.177323495522;1.86759808571878;2;-72;-12.8226765044783;Fritsche et al. (2020);Experiment 3;Orientation
1;3;32;118;110.850477592139;2.11766226812961;2;4;-7.14952240786081;Fritsche et al. (2020);Experiment 3;Orientation
1;3;33;39;19.9666021952976;2.16782950811012;1;79;-19.0333978047024;Fritsche et al. (2020);Experiment 3;Orientation
1;3;34;178;0.128502706068204;1.78436904118462;1;41;2.12850270606822;Fritsche et al. (2020);Experiment 3;Orientation
1;3;35;130;112.517947591977;1.60112076021232;2;48;-17.4820524080229;Fritsche et al. (2020);Experiment 3;Orientation
1;3;36;139;165.796968832892;1.85099842963427;2;-9;26.7969688328922;Fritsche et al. (2020);Experiment 3;Orientation
1;3;37;87;81.7353157298043;1.68442879848408;1;52;-5.26468427019574;Fritsche et al. (2020);Experiment 3;Orientation
1;3;38;138;166.90092131924;1.08442163053314;2;-51;28.9009213192401;Fritsche et al. (2020);Experiment 3;Orientation
1;3;39;169;167.193725652128;1.46766632752951;2;-31;-1.80627434787169;Fritsche et al. (2020);Experiment 3;Orientation
1;3;40;76;75.1759519980028;1.45109409982615;1;-87;-0.824048001997213;Fritsche et al. (2020);Experiment 3;Orientation
1;3;41;142;157.604483656685;1.33444448751652;1;-66;15.6044836566847;Fritsche et al. (2020);Experiment 3;Orientation
1;3;42;85;61.8962448592156;1.98440129695973;2;57;-23.1037551407844;Fritsche et al. (2020);Experiment 3;Orientation
1;3;43;2;17.506519869434;1.18443574700723;2;83;15.506519869434;Fritsche et al. (2020);Experiment 3;Orientation
1;3;44;17;15.266903981653;1.7677554880529;1;-15;-1.73309601834698;Fritsche et al. (2020);Experiment 3;Orientation
1;3;45;3;13.340677032491;2.23429615483383;2;14;10.340677032491;Fritsche et al. (2020);Experiment 3;Orientation
1;3;46;93;95.6310819839697;1.76777669933472;1;-90;2.63108198396971;Fritsche et al. (2020);Experiment 3;Orientation
1;3;47;111;117.088240000081;1.06779381464366;1;-18;6.08824000008067;Fritsche et al. (2020);Experiment 3;Orientation
1;3;48;108;112.796363254632;1.31780423742839;2;3;4.79636325463241;Fritsche et al. (2020);Experiment 3;Orientation
1;3;49;92;99.0280829496067;1.31784702570258;1;16;7.02808294960671;Fritsche et al. (2020);Experiment 3;Orientation
1;3;50;127;129.800529398201;2.28435477842595;2;-35;2.80052939820075;Fritsche et al. (2020);Experiment 3;Orientation
1;3;51;94;100.470477967341;1.51769752274231;2;33;6.47047796734132;Fritsche et al. (2020);Experiment 3;Orientation
1;3;52;89;80.6060916303295;2.06760986163681;2;5;-8.3939083696705;Fritsche et al. (2020);Experiment 3;Orientation
1;3;53;165;173.229147106137;2.36774912466899;2;-76;8.22914710613662;Fritsche et al. (2020);Experiment 3;Orientation
1;3;54;169;155.877060567002;1.63383623574373;2;-4;-13.1229394329983;Fritsche et al. (2020);Experiment 3;Orientation
1;3;55;31;32.1795055745445;2.71768955022526;1;-42;1.17950557454454;Fritsche et al. (2020);Experiment 3;Orientation
1;3;56;11;15.4446735734615;2.9008873629773;2;20;4.44467357346154;Fritsche et al. (2020);Experiment 3;Orientation
1;3;57;110;116.758724252033;2.51774287099761;1;81;6.75872425203286;Fritsche et al. (2020);Experiment 3;Orientation
1;3;58;123;121.085544516654;2.06766947265078;2;-13;-1.91445548334623;Fritsche et al. (2020);Experiment 3;Orientation
1;3;59;160;158.491927354484;1.30113802180676;1;-37;-1.50807264551611;Fritsche et al. (2020);Experiment 3;Orientation
1;3;60;154;163.19818988409;0.984429456764701;1;6;9.19818988408963;Fritsche et al. (2020);Experiment 3;Orientation
1;3;61;82;74.340764212899;2.33415886664443;2;72;-7.65923578710095;Fritsche et al. (2020);Experiment 3;Orientation
