obs;theta;resp;error;rt;block;delta;trial;study;experiment;stimulus
1;155;145;-10;1.53824429959059;1;NaN;1;Houborg et al. (2023b);Experiment 2;Orientation
1;146;143;-3;1.9399478007108;1;9;2;Houborg et al. (2023b);Experiment 2;Orientation
1;173;164;-9;1.15869709849358;1;-27;3;Houborg et al. (2023b);Experiment 2;Orientation
1;140;125;-15;2.24300380051136;1;33;4;Houborg et al. (2023b);Experiment 2;Orientation
1;158;155;-3;2.57528520002961;1;-18;5;Houborg et al. (2023b);Experiment 2;Orientation
1;130;123;-7;2.22625000029802;1;28;6;Houborg et al. (2023b);Experiment 2;Orientation
1;81;80;-1;1.07546309940517;1;49;7;Houborg et al. (2023b);Experiment 2;Orientation
1;3;16;13;1.39247979968786;1;78;8;Houborg et al. (2023b);Experiment 2;Orientation
1;126;117;-9;1.70921960100532;1;57;9;Houborg et al. (2023b);Experiment 2;Orientation
1;65;65;0;1.60908070020378;1;61;10;Houborg et al. (2023b);Experiment 2;Orientation
1;89;84;-5;1.70920180156827;1;-24;11;Houborg et al. (2023b);Experiment 2;Orientation
1;20;26;6;2.89091860130429;1;69;12;Houborg et al. (2023b);Experiment 2;Orientation
1;2;2;0;2.22621979936957;1;18;13;Houborg et al. (2023b);Experiment 2;Orientation
1;124;121;-3;1.42548680119216;1;58;14;Houborg et al. (2023b);Experiment 2;Orientation
1;36;44;8;1.14206380024552;1;88;15;Houborg et al. (2023b);Experiment 2;Orientation
1;88;91;3;2.04059519991279;1;-52;16;Houborg et al. (2023b);Experiment 2;Orientation
1;21;37;16;1.97640760056674;1;67;17;Houborg et al. (2023b);Experiment 2;Orientation
1;44;51;7;1.67574159987271;1;-23;18;Houborg et al. (2023b);Experiment 2;Orientation
1;75;75;0;1.47571259923279;1;-31;19;Houborg et al. (2023b);Experiment 2;Orientation
1;179;179;0;1.39215369895101;1;76;20;Houborg et al. (2023b);Experiment 2;Orientation
1;46;55;9;2.86017579957843;1;-47;21;Houborg et al. (2023b);Experiment 2;Orientation
1;84;86;2;2.66011090017855;1;-38;22;Houborg et al. (2023b);Experiment 2;Orientation
1;103;104;1;1.74251810088754;1;-19;23;Houborg et al. (2023b);Experiment 2;Orientation
1;41;47;6;3.66071450151503;1;62;24;Houborg et al. (2023b);Experiment 2;Orientation
1;146;133;-13;2.44208929874003;1;75;25;Houborg et al. (2023b);Experiment 2;Orientation
1;121;122;1;3.50898420065641;1;25;26;Houborg et al. (2023b);Experiment 2;Orientation
1;85;89;4;2.96014250069857;1;36;27;Houborg et al. (2023b);Experiment 2;Orientation
1;131;126;-5;1.9093530010432;1;-46;28;Houborg et al. (2023b);Experiment 2;Orientation
1;119;123;4;1.55913539975882;1;12;29;Houborg et al. (2023b);Experiment 2;Orientation
1;141;131;-10;2.94346079975367;1;-22;30;Houborg et al. (2023b);Experiment 2;Orientation
1;135;128;-7;1.74288970045745;1;6;31;Houborg et al. (2023b);Experiment 2;Orientation
1;160;151;-9;1.04193739965558;1;-25;32;Houborg et al. (2023b);Experiment 2;Orientation
1;173;173;0;1.10875450074673;1;-13;33;Houborg et al. (2023b);Experiment 2;Orientation
1;154;162;8;1.82596800103784;1;19;34;Houborg et al. (2023b);Experiment 2;Orientation
1;119;114;-5;2.74336560070515;1;35;35;Houborg et al. (2023b);Experiment 2;Orientation
1;71;77;6;1.44271139986813;1;48;36;Houborg et al. (2023b);Experiment 2;Orientation
1;143;131;-12;1.77604079991579;1;-72;37;Houborg et al. (2023b);Experiment 2;Orientation
1;84;82;-2;1.62568579986691;1;59;38;Houborg et al. (2023b);Experiment 2;Orientation
1;167;160;-7;1.67196599952877;1;-83;39;Houborg et al. (2023b);Experiment 2;Orientation
1;102;91;-11;3.15816069953144;1;65;40;Houborg et al. (2023b);Experiment 2;Orientation
1;128;125;-3;2.26016240008175;1;-26;41;Houborg et al. (2023b);Experiment 2;Orientation
1;43;53;10;1.42568800039589;1;85;42;Houborg et al. (2023b);Experiment 2;Orientation
1;142;125;-17;2.75987419858575;1;81;43;Houborg et al. (2023b);Experiment 2;Orientation
1;160;152;-8;1.92194579914212;1;-18;44;Houborg et al. (2023b);Experiment 2;Orientation
1;135;132;-3;2.37643229961395;1;25;45;Houborg et al. (2023b);Experiment 2;Orientation
1;172;177;5;1.80960539914668;1;-37;46;Houborg et al. (2023b);Experiment 2;Orientation
1;36;47;11;2.07624410092831;1;-44;47;Houborg et al. (2023b);Experiment 2;Orientation
1;41;43;2;1.42230440117419;1;-5;48;Houborg et al. (2023b);Experiment 2;Orientation
1;102;102;0;3.26051149889827;1;-61;49;Houborg et al. (2023b);Experiment 2;Orientation
1;39;52;13;2.30963189899921;1;63;50;Houborg et al. (2023b);Experiment 2;Orientation
1;112;106;-6;1.80905089899898;1;-73;51;Houborg et al. (2023b);Experiment 2;Orientation
1;40;39;-1;2.37643500044942;1;72;52;Houborg et al. (2023b);Experiment 2;Orientation
1;23;18;-5;3.17758719995618;1;17;53;Houborg et al. (2023b);Experiment 2;Orientation
1;76;80;4;2.9597532004118;1;-53;54;Houborg et al. (2023b);Experiment 2;Orientation
1;155;151;-4;1.15874740108848;1;-79;55;Houborg et al. (2023b);Experiment 2;Orientation
1;62;67;5;1.30553780123591;1;-87;56;Houborg et al. (2023b);Experiment 2;Orientation
1;30;34;4;1.37533950060606;1;32;57;Houborg et al. (2023b);Experiment 2;Orientation
1;146;139;-7;0.775101998820901;1;64;58;Houborg et al. (2023b);Experiment 2;Orientation
1;119;113;-6;1.77251419983804;1;27;59;Houborg et al. (2023b);Experiment 2;Orientation
1;18;29;11;2.05937690101564;1;-79;60;Houborg et al. (2023b);Experiment 2;Orientation
1;24;32;8;0.858769500628114;1;-6;61;Houborg et al. (2023b);Experiment 2;Orientation
1;50;52;2;1.69258520007133;1;-26;62;Houborg et al. (2023b);Experiment 2;Orientation
1;176;176;0;1.94305250048637;1;54;63;Houborg et al. (2023b);Experiment 2;Orientation
1;62;71;9;1.45901839993894;1;-66;64;Houborg et al. (2023b);Experiment 2;Orientation
1;60;66;6;1.79255229979753;1;2;65;Houborg et al. (2023b);Experiment 2;Orientation
1;176;173;-3;1.12539459951222;1;64;66;Houborg et al. (2023b);Experiment 2;Orientation
1;87;91;4;3.04354059882462;1;89;67;Houborg et al. (2023b);Experiment 2;Orientation
1;156;145;-11;1.6426128000021;1;-69;68;Houborg et al. (2023b);Experiment 2;Orientation
1;90;89;-1;2.32407779991627;1;66;69;Houborg et al. (2023b);Experiment 2;Orientation
1;37;34;-3;1.65908079966903;1;53;70;Houborg et al. (2023b);Experiment 2;Orientation
1;179;178;-1;2.71006710082293;1;38;71;Houborg et al. (2023b);Experiment 2;Orientation
1;135;127;-8;0.888625498861074;1;44;72;Houborg et al. (2023b);Experiment 2;Orientation
1;21;18;-3;2.02613210119307;1;-66;73;Houborg et al. (2023b);Experiment 2;Orientation
1;60;74;14;1.02093929983675;1;-39;74;Houborg et al. (2023b);Experiment 2;Orientation
1;141;121;-20;2.77680229954422;1;-81;75;Houborg et al. (2023b);Experiment 2;Orientation
1;69;70;1;2.09278880059719;1;72;76;Houborg et al. (2023b);Experiment 2;Orientation
1;139;126;-13;3.02438249997795;1;-70;77;Houborg et al. (2023b);Experiment 2;Orientation
1;7;16;9;2.50982530042529;1;-48;78;Houborg et al. (2023b);Experiment 2;Orientation
1;90;85;-5;1.1419872995466;1;-83;79;Houborg et al. (2023b);Experiment 2;Orientation
1;127;126;-1;2.47651540115476;1;-37;80;Houborg et al. (2023b);Experiment 2;Orientation
1;13;11;-2;1.1906649004668;1;-66;81;Houborg et al. (2023b);Experiment 2;Orientation
1;148;137;-11;2.10955150052905;1;45;82;Houborg et al. (2023b);Experiment 2;Orientation
1;82;81;-1;1.97622709907591;1;66;83;Houborg et al. (2023b);Experiment 2;Orientation
1;59;64;5;1.575828300789;1;23;84;Houborg et al. (2023b);Experiment 2;Orientation
1;33;51;18;2.75997320003808;1;26;85;Houborg et al. (2023b);Experiment 2;Orientation
1;136;124;-12;1.35468290001154;1;77;86;Houborg et al. (2023b);Experiment 2;Orientation
1;71;75;4;0.975103300064802;1;65;87;Houborg et al. (2023b);Experiment 2;Orientation
1;147;127;-20;2.80916900001466;1;-76;88;Houborg et al. (2023b);Experiment 2;Orientation
1;27;37;10;1.15883330069482;1;-60;89;Houborg et al. (2023b);Experiment 2;Orientation
1;16;23;7;0.975326700136065;1;11;90;Houborg et al. (2023b);Experiment 2;Orientation
1;65;75;10;2.69139330089092;1;-49;91;Houborg et al. (2023b);Experiment 2;Orientation
1;141;129;-12;1.20481719821692;1;-76;92;Houborg et al. (2023b);Experiment 2;Orientation
1;2;2;0;2.00941749848425;1;-41;93;Houborg et al. (2023b);Experiment 2;Orientation
1;36;38;2;2.19136209972203;1;-34;94;Houborg et al. (2023b);Experiment 2;Orientation
1;20;17;-3;1.77628850005567;1;16;95;Houborg et al. (2023b);Experiment 2;Orientation
1;52;51;-1;1.5591925997287;1;-32;96;Houborg et al. (2023b);Experiment 2;Orientation
1;48;60;12;1.42537730000913;1;4;97;Houborg et al. (2023b);Experiment 2;Orientation
1;90;91;1;2.40980079956353;1;-42;98;Houborg et al. (2023b);Experiment 2;Orientation
1;41;46;5;3.37746319919825;1;49;99;Houborg et al. (2023b);Experiment 2;Orientation
1;31;34;3;2.79174279980361;1;10;100;Houborg et al. (2023b);Experiment 2;Orientation
1;163;140;-23;3.37740620039403;2;48;101;Houborg et al. (2023b);Experiment 2;Orientation
1;170;162;-8;2.12655469961464;2;-7;102;Houborg et al. (2023b);Experiment 2;Orientation
1;141;134;-7;1.47581450082362;2;29;103;Houborg et al. (2023b);Experiment 2;Orientation
1;128;123;-5;1.00734570063651;2;13;104;Houborg et al. (2023b);Experiment 2;Orientation
1;166;153;-13;2.47654789872468;2;-38;105;Houborg et al. (2023b);Experiment 2;Orientation
1;68;73;5;1.7258291002363;2;-82;106;Houborg et al. (2023b);Experiment 2;Orientation
1;116;112;-4;1.60950089991093;2;-48;107;Houborg et al. (2023b);Experiment 2;Orientation
1;166;157;-9;1.0573789998889;2;-50;108;Houborg et al. (2023b);Experiment 2;Orientation
1;36;53;17;2.00942839868367;2;-50;109;Houborg et al. (2023b);Experiment 2;Orientation
1;113;110;-3;1.90618500113487;2;-77;110;Houborg et al. (2023b);Experiment 2;Orientation
1;31;31;0;1.52581949904561;2;82;111;Houborg et al. (2023b);Experiment 2;Orientation
1;61;67;6;1.49257980100811;2;-30;112;Houborg et al. (2023b);Experiment 2;Orientation
1;33;49;16;2.65992269851267;2;28;113;Houborg et al. (2023b);Experiment 2;Orientation
1;33;46;13;0.758574100211263;2;0;114;Houborg et al. (2023b);Experiment 2;Orientation
1;59;55;-4;1.32562109827995;2;-26;115;Houborg et al. (2023b);Experiment 2;Orientation
1;126;117;-9;1.77375200018287;2;-67;116;Houborg et al. (2023b);Experiment 2;Orientation
1;134;125;-9;0.908464800566435;2;-8;117;Houborg et al. (2023b);Experiment 2;Orientation
1;21;40;19;2.2095953989774;2;-67;118;Houborg et al. (2023b);Experiment 2;Orientation
1;79;79;0;2.50988120026886;2;-58;119;Houborg et al. (2023b);Experiment 2;Orientation
1;115;116;1;2.12663980014622;2;-36;120;Houborg et al. (2023b);Experiment 2;Orientation
1;99;99;0;2.25983819924295;2;16;121;Houborg et al. (2023b);Experiment 2;Orientation
1;45;48;3;1.69241189956665;2;54;122;Houborg et al. (2023b);Experiment 2;Orientation
1;83;82;-1;1.80705540068448;2;-38;123;Houborg et al. (2023b);Experiment 2;Orientation
1;0;2;2;2.77681530080736;2;83;124;Houborg et al. (2023b);Experiment 2;Orientation
1;77;80;3;4.24080839939415;2;-77;125;Houborg et al. (2023b);Experiment 2;Orientation
1;129;124;-5;1.90921230055392;2;-52;126;Houborg et al. (2023b);Experiment 2;Orientation
1;61;78;17;2.96031579934061;2;68;127;Houborg et al. (2023b);Experiment 2;Orientation
1;71;69;-2;1.62581000104547;2;-10;128;Houborg et al. (2023b);Experiment 2;Orientation
1;142;141;-1;2.32639300078154;2;-71;129;Houborg et al. (2023b);Experiment 2;Orientation
1;145;136;-9;1.24201229959726;2;-3;130;Houborg et al. (2023b);Experiment 2;Orientation
1;121;122;1;1.37549320049584;2;24;131;Houborg et al. (2023b);Experiment 2;Orientation
1;55;49;-6;1.52566689997911;2;66;132;Houborg et al. (2023b);Experiment 2;Orientation
1;129;131;2;1.99275900050998;2;-74;133;Houborg et al. (2023b);Experiment 2;Orientation
1;59;54;-5;1.84242399968207;2;70;134;Houborg et al. (2023b);Experiment 2;Orientation
1;141;133;-8;2.14272050000727;2;-82;135;Houborg et al. (2023b);Experiment 2;Orientation
1;100;99;-1;1.8069189991802;2;41;136;Houborg et al. (2023b);Experiment 2;Orientation
1;169;171;2;0.806160900741816;2;-69;137;Houborg et al. (2023b);Experiment 2;Orientation
1;11;15;4;1.72607879899442;2;-22;138;Houborg et al. (2023b);Experiment 2;Orientation
1;84;82;-2;2.19283200055361;2;-73;139;Houborg et al. (2023b);Experiment 2;Orientation
1;19;19;0;0.841730400919914;2;65;140;Houborg et al. (2023b);Experiment 2;Orientation
1;23;28;5;1.52569030039012;2;-4;141;Houborg et al. (2023b);Experiment 2;Orientation
1;22;32;10;2.56031029857695;2;1;142;Houborg et al. (2023b);Experiment 2;Orientation
1;108;106;-2;2.3763388004154;2;-86;143;Houborg et al. (2023b);Experiment 2;Orientation
1;59;69;10;2.2931334991008;2;49;144;Houborg et al. (2023b);Experiment 2;Orientation
1;172;174;2;1.02118900045753;2;67;145;Houborg et al. (2023b);Experiment 2;Orientation
1;93;97;4;1.10867140069604;2;79;146;Houborg et al. (2023b);Experiment 2;Orientation
1;99;97;-2;2.67671579867601;2;-6;147;Houborg et al. (2023b);Experiment 2;Orientation
1;55;71;16;1.27538750134408;2;44;148;Houborg et al. (2023b);Experiment 2;Orientation
1;1;6;5;2.20914419926703;2;54;149;Houborg et al. (2023b);Experiment 2;Orientation
1;139;133;-6;2.20969309844077;2;42;150;Houborg et al. (2023b);Experiment 2;Orientation
1;89;87;-2;1.94260839931667;2;50;151;Houborg et al. (2023b);Experiment 2;Orientation
1;27;34;7;2.19295119866729;2;62;152;Houborg et al. (2023b);Experiment 2;Orientation
1;98;98;0;1.60891370102763;2;-71;153;Houborg et al. (2023b);Experiment 2;Orientation
1;22;31;9;2.49339690059423;2;76;154;Houborg et al. (2023b);Experiment 2;Orientation
1;35;39;4;2.35965389944613;2;-13;155;Houborg et al. (2023b);Experiment 2;Orientation
1;26;30;4;1.90019110031426;2;9;156;Houborg et al. (2023b);Experiment 2;Orientation
1;152;143;-9;1.47202820144594;2;54;157;Houborg et al. (2023b);Experiment 2;Orientation
1;80;80;0;1.75547030009329;2;72;158;Houborg et al. (2023b);Experiment 2;Orientation
1;36;44;8;1.74291019886732;2;44;159;Houborg et al. (2023b);Experiment 2;Orientation
1;76;69;-7;1.27549860067666;2;-40;160;Houborg et al. (2023b);Experiment 2;Orientation
1;144;142;-2;1.27561530098319;2;-68;161;Houborg et al. (2023b);Experiment 2;Orientation
1;157;145;-12;1.54237410053611;2;-13;162;Houborg et al. (2023b);Experiment 2;Orientation
1;170;163;-7;1.78896350041032;2;-13;163;Houborg et al. (2023b);Experiment 2;Orientation
1;107;34;-73;1.34206089936197;2;63;164;Houborg et al. (2023b);Experiment 2;Orientation
1;52;56;4;2.6743746008724;2;55;165;Houborg et al. (2023b);Experiment 2;Orientation
1;136;129;-7;1.90485619939864;2;-84;166;Houborg et al. (2023b);Experiment 2;Orientation
1;54;60;6;2.67444580048323;2;82;167;Houborg et al. (2023b);Experiment 2;Orientation
1;20;41;21;2.30973329953849;2;34;168;Houborg et al. (2023b);Experiment 2;Orientation
1;70;70;0;1.69265370070934;2;-50;169;Houborg et al. (2023b);Experiment 2;Orientation
1;141;123;-18;3.32727090083063;2;-71;170;Houborg et al. (2023b);Experiment 2;Orientation
1;133;125;-8;1.14043240062892;2;8;171;Houborg et al. (2023b);Experiment 2;Orientation
1;136;128;-8;2.05972659960389;2;-3;172;Houborg et al. (2023b);Experiment 2;Orientation
1;100;98;-2;2.12607569992542;2;36;173;Houborg et al. (2023b);Experiment 2;Orientation
1;101;100;-1;2.00946060009301;2;-1;174;Houborg et al. (2023b);Experiment 2;Orientation
1;45;46;1;2.86011239886284;2;56;175;Houborg et al. (2023b);Experiment 2;Orientation
1;26;42;16;1.94003389962018;2;19;176;Houborg et al. (2023b);Experiment 2;Orientation
1;72;71;-1;2.00942350178957;2;-46;177;Houborg et al. (2023b);Experiment 2;Orientation
1;63;62;-1;2.62664229981601;2;9;178;Houborg et al. (2023b);Experiment 2;Orientation
1;108;111;3;2.590944301337;2;-45;179;Houborg et al. (2023b);Experiment 2;Orientation
1;116;114;-2;1.49223589897156;2;-8;180;Houborg et al. (2023b);Experiment 2;Orientation
1;35;43;8;1.94271959923208;2;81;181;Houborg et al. (2023b);Experiment 2;Orientation
1;110;104;-6;2.44324810057878;2;-75;182;Houborg et al. (2023b);Experiment 2;Orientation
1;82;81;-1;1.70965520106256;2;28;183;Houborg et al. (2023b);Experiment 2;Orientation
1;137;125;-12;1.35878559947014;2;-55;184;Houborg et al. (2023b);Experiment 2;Orientation
1;70;69;-1;1.25497590005398;2;67;185;Houborg et al. (2023b);Experiment 2;Orientation
1;160;150;-10;2.60987979918718;2;-90;186;Houborg et al. (2023b);Experiment 2;Orientation
1;10;16;6;1.60781239904463;2;-30;187;Houborg et al. (2023b);Experiment 2;Orientation
1;142;138;-4;2.0395422000438;2;48;188;Houborg et al. (2023b);Experiment 2;Orientation
1;94;95;1;0.941909100860357;2;48;189;Houborg et al. (2023b);Experiment 2;Orientation
1;6;18;12;1.07515609823167;2;88;190;Houborg et al. (2023b);Experiment 2;Orientation
1;17;14;-3;1.44233189895749;2;-11;191;Houborg et al. (2023b);Experiment 2;Orientation
1;40;43;3;1.90941040031612;2;-23;192;Houborg et al. (2023b);Experiment 2;Orientation
1;179;179;0;1.50938570126891;2;41;193;Houborg et al. (2023b);Experiment 2;Orientation
1;115;107;-8;1.34210770018399;2;64;194;Houborg et al. (2023b);Experiment 2;Orientation
1;39;49;10;2.65639419853687;2;76;195;Houborg et al. (2023b);Experiment 2;Orientation
1;55;74;19;3.34399240091443;2;-16;196;Houborg et al. (2023b);Experiment 2;Orientation
1;167;158;-9;2.72650410048664;2;68;197;Houborg et al. (2023b);Experiment 2;Orientation
1;25;30;5;1.49135399982333;2;-38;198;Houborg et al. (2023b);Experiment 2;Orientation
1;148;138;-10;1.74263030104339;2;57;199;Houborg et al. (2023b);Experiment 2;Orientation
1;104;102;-2;1.92652380093932;2;44;200;Houborg et al. (2023b);Experiment 2;Orientation
1;174;176;2;1.37469079904258;3;-70;201;Houborg et al. (2023b);Experiment 2;Orientation
1;147;139;-8;2.29123220033944;3;27;202;Houborg et al. (2023b);Experiment 2;Orientation
1;113;107;-6;2.15953920036554;3;34;203;Houborg et al. (2023b);Experiment 2;Orientation
1;125;114;-11;2.10906329937279;3;-12;204;Houborg et al. (2023b);Experiment 2;Orientation
1;120;117;-3;1.90590570122004;3;5;205;Houborg et al. (2023b);Experiment 2;Orientation
1;95;93;-2;2.59361919946969;3;25;206;Houborg et al. (2023b);Experiment 2;Orientation
1;56;60;4;1.7758761998266;3;39;207;Houborg et al. (2023b);Experiment 2;Orientation
1;174;177;3;2.94347249902785;3;62;208;Houborg et al. (2023b);Experiment 2;Orientation
1;19;23;4;1.75905019976199;3;-25;209;Houborg et al. (2023b);Experiment 2;Orientation
1;60;54;-6;1.79158790037036;3;-41;210;Houborg et al. (2023b);Experiment 2;Orientation
1;15;24;9;2.07635219953954;3;45;211;Houborg et al. (2023b);Experiment 2;Orientation
1;90;87;-3;1.1421560999006;3;-75;212;Houborg et al. (2023b);Experiment 2;Orientation
1;125;122;-3;2.39321220107377;3;-35;213;Houborg et al. (2023b);Experiment 2;Orientation
1;139;130;-9;2.74348320066929;3;-14;214;Houborg et al. (2023b);Experiment 2;Orientation
1;121;122;1;1.42558019980788;3;18;215;Houborg et al. (2023b);Experiment 2;Orientation
1;13;24;11;2.27643129974604;3;-72;216;Houborg et al. (2023b);Experiment 2;Orientation
1;110;108;-2;1.10869159922004;3;83;217;Houborg et al. (2023b);Experiment 2;Orientation
1;155;149;-6;0.858874401077628;3;-45;218;Houborg et al. (2023b);Experiment 2;Orientation
1;172;160;-12;2.5265468005091;3;-17;219;Houborg et al. (2023b);Experiment 2;Orientation
1;136;129;-7;1.75917989946902;3;36;220;Houborg et al. (2023b);Experiment 2;Orientation
1;55;54;-1;1.20897870138288;3;81;221;Houborg et al. (2023b);Experiment 2;Orientation
1;95;97;2;1.77592409960926;3;-40;222;Houborg et al. (2023b);Experiment 2;Orientation
1;26;38;12;2.67664860002697;3;69;223;Houborg et al. (2023b);Experiment 2;Orientation
1;15;23;8;2.69329520128667;3;11;224;Houborg et al. (2023b);Experiment 2;Orientation
1;157;152;-5;2.0904676001519;3;38;225;Houborg et al. (2023b);Experiment 2;Orientation
1;107;107;0;2.37629020027816;3;50;226;Houborg et al. (2023b);Experiment 2;Orientation
1;115;109;-6;0.991902800276875;3;-8;227;Houborg et al. (2023b);Experiment 2;Orientation
1;54;61;7;1.70560180023313;3;61;228;Houborg et al. (2023b);Experiment 2;Orientation
1;3;11;8;1.57577800005674;3;51;229;Houborg et al. (2023b);Experiment 2;Orientation
1;124;125;1;0.958508098497987;3;59;230;Houborg et al. (2023b);Experiment 2;Orientation
1;31;41;10;2.74316709861159;3;-87;231;Houborg et al. (2023b);Experiment 2;Orientation
1;121;121;0;1.04210310056806;3;-90;232;Houborg et al. (2023b);Experiment 2;Orientation
1;101;99;-2;2.02614980004728;3;20;233;Houborg et al. (2023b);Experiment 2;Orientation
1;140;138;-2;1.50904680043459;3;-39;234;Houborg et al. (2023b);Experiment 2;Orientation
1;114;117;3;0.991893399506807;3;26;235;Houborg et al. (2023b);Experiment 2;Orientation
1;52;60;8;1.55912179872394;3;62;236;Houborg et al. (2023b);Experiment 2;Orientation
1;127;122;-5;1.27541710063815;3;-75;237;Houborg et al. (2023b);Experiment 2;Orientation
1;121;123;2;1.18810730054975;3;6;238;Houborg et al. (2023b);Experiment 2;Orientation
1;130;137;7;2.7409581001848;3;-9;239;Houborg et al. (2023b);Experiment 2;Orientation
1;60;72;12;1.85595799982548;3;70;240;Houborg et al. (2023b);Experiment 2;Orientation
1;161;160;-1;1.70964290015399;3;79;241;Houborg et al. (2023b);Experiment 2;Orientation
1;177;171;-6;1.40645629912615;3;-16;242;Houborg et al. (2023b);Experiment 2;Orientation
1;56;53;-3;1.1419028993696;3;-59;243;Houborg et al. (2023b);Experiment 2;Orientation
1;55;59;4;1.30907329916954;3;1;244;Houborg et al. (2023b);Experiment 2;Orientation
1;6;8;2;1.05535260029137;3;49;245;Houborg et al. (2023b);Experiment 2;Orientation
1;5;9;4;2.8932742010802;3;1;246;Houborg et al. (2023b);Experiment 2;Orientation
1;75;79;4;2.64247640036047;3;-70;247;Houborg et al. (2023b);Experiment 2;Orientation
1;80;85;5;3.37715389952064;3;-5;248;Houborg et al. (2023b);Experiment 2;Orientation
1;53;63;10;1.19221720099449;3;27;249;Houborg et al. (2023b);Experiment 2;Orientation
1;55;57;2;2.32640000060201;3;-2;250;Houborg et al. (2023b);Experiment 2;Orientation
1;47;44;-3;2.1098024006933;3;8;251;Houborg et al. (2023b);Experiment 2;Orientation
1;132;138;6;1.52415850013494;3;-85;252;Houborg et al. (2023b);Experiment 2;Orientation
1;122;129;7;1.50890449993312;3;10;253;Houborg et al. (2023b);Experiment 2;Orientation
1;32;44;12;1.14214619994164;3;90;254;Houborg et al. (2023b);Experiment 2;Orientation
1;115;112;-3;1.39231090061367;3;-83;255;Houborg et al. (2023b);Experiment 2;Orientation
1;55;62;7;2.87689550034702;3;60;256;Houborg et al. (2023b);Experiment 2;Orientation
1;98;97;-1;2.71003419905901;3;-43;257;Houborg et al. (2023b);Experiment 2;Orientation
1;67;76;9;1.22583599947393;3;31;258;Houborg et al. (2023b);Experiment 2;Orientation
1;104;98;-6;1.27215749956667;3;-37;259;Houborg et al. (2023b);Experiment 2;Orientation
1;5;7;2;2.0928770005703;3;-81;260;Houborg et al. (2023b);Experiment 2;Orientation
1;150;150;0;1.8261660002172;3;35;261;Houborg et al. (2023b);Experiment 2;Orientation
1;83;84;1;2.39110499992967;3;67;262;Houborg et al. (2023b);Experiment 2;Orientation
1;101;100;-1;1.12096779979765;3;-18;263;Houborg et al. (2023b);Experiment 2;Orientation
1;133;123;-10;2.58909989893436;3;-32;264;Houborg et al. (2023b);Experiment 2;Orientation
1;148;141;-7;1.42549690045416;3;-15;265;Houborg et al. (2023b);Experiment 2;Orientation
1;74;78;4;1.12366489879787;3;74;266;Houborg et al. (2023b);Experiment 2;Orientation
1;75;81;6;2.17641039937735;3;-1;267;Houborg et al. (2023b);Experiment 2;Orientation
1;45;62;17;1.95804479904473;3;30;268;Houborg et al. (2023b);Experiment 2;Orientation
1;80;74;-6;1.02548919990659;3;-35;269;Houborg et al. (2023b);Experiment 2;Orientation
1;11;14;3;1.12533700093627;3;69;270;Houborg et al. (2023b);Experiment 2;Orientation
1;154;152;-2;3.04264960065484;3;37;271;Houborg et al. (2023b);Experiment 2;Orientation
1;115;112;-3;2.35964800044894;3;39;272;Houborg et al. (2023b);Experiment 2;Orientation
1;115;114;-1;2.97686690092087;3;0;273;Houborg et al. (2023b);Experiment 2;Orientation
1;102;100;-2;1.62254079990089;3;13;274;Houborg et al. (2023b);Experiment 2;Orientation
1;28;33;5;2.64314169995487;3;74;275;Houborg et al. (2023b);Experiment 2;Orientation
1;157;147;-10;2.15955989994109;3;51;276;Houborg et al. (2023b);Experiment 2;Orientation
1;95;93;-2;1.92609689943492;3;62;277;Houborg et al. (2023b);Experiment 2;Orientation
1;48;52;4;0.758805999532342;3;47;278;Houborg et al. (2023b);Experiment 2;Orientation
1;98;92;-6;1.50903700105846;3;-50;279;Houborg et al. (2023b);Experiment 2;Orientation
1;103;98;-5;1.40888950042427;3;-5;280;Houborg et al. (2023b);Experiment 2;Orientation
1;129;117;-12;1.22544809989631;3;-26;281;Houborg et al. (2023b);Experiment 2;Orientation
1;36;38;2;2.25972129963338;3;-87;282;Houborg et al. (2023b);Experiment 2;Orientation
1;2;6;4;1.17357750050724;3;34;283;Houborg et al. (2023b);Experiment 2;Orientation
1;95;94;-1;1.523606300354;3;87;284;Houborg et al. (2023b);Experiment 2;Orientation
1;83;88;5;2.77666969969869;3;12;285;Houborg et al. (2023b);Experiment 2;Orientation
1;44;43;-1;1.52579589933157;3;39;286;Houborg et al. (2023b);Experiment 2;Orientation
1;30;42;12;2.40972059965134;3;14;287;Houborg et al. (2023b);Experiment 2;Orientation
1;24;30;6;1.22583650052547;3;6;288;Houborg et al. (2023b);Experiment 2;Orientation
1;135;126;-9;0.991961000487208;3;69;289;Houborg et al. (2023b);Experiment 2;Orientation
1;169;168;-1;1.22537649981678;3;-34;290;Houborg et al. (2023b);Experiment 2;Orientation
1;62;67;5;1.17584190145135;3;-73;291;Houborg et al. (2023b);Experiment 2;Orientation
1;64;65;1;1.97457970120013;3;-2;292;Houborg et al. (2023b);Experiment 2;Orientation
1;115;114;-1;1.82596159912646;3;-51;293;Houborg et al. (2023b);Experiment 2;Orientation
1;100;98;-2;2.15544269979;3;15;294;Houborg et al. (2023b);Experiment 2;Orientation
1;177;176;-1;1.17538480088115;3;-77;295;Houborg et al. (2023b);Experiment 2;Orientation
1;0;2;2;2.3930837996304;3;-3;296;Houborg et al. (2023b);Experiment 2;Orientation
1;155;160;5;1.3253707010299;3;25;297;Houborg et al. (2023b);Experiment 2;Orientation
1;62;72;10;2.20957989990711;3;-87;298;Houborg et al. (2023b);Experiment 2;Orientation
1;131;126;-5;0.875145399942994;3;-69;299;Houborg et al. (2023b);Experiment 2;Orientation
1;81;87;6;2.322290699929;3;50;300;Houborg et al. (2023b);Experiment 2;Orientation
1;32;41;9;1.59239920042455;4;49;301;Houborg et al. (2023b);Experiment 2;Orientation
1;176;172;-4;1.09242080152035;4;36;302;Houborg et al. (2023b);Experiment 2;Orientation
1;177;174;-3;1.74276500009;4;-1;303;Houborg et al. (2023b);Experiment 2;Orientation
1;133;121;-12;1.4578118994832;4;44;304;Houborg et al. (2023b);Experiment 2;Orientation
1;135;129;-6;2.54322009906173;4;-2;305;Houborg et al. (2023b);Experiment 2;Orientation
1;138;131;-7;2.04282510094345;4;-3;306;Houborg et al. (2023b);Experiment 2;Orientation
1;35;50;15;2.7271831985563;4;-77;307;Houborg et al. (2023b);Experiment 2;Orientation
1;101;104;3;1.84261039830744;4;-66;308;Houborg et al. (2023b);Experiment 2;Orientation
1;82;80;-2;2.0594445001334;4;19;309;Houborg et al. (2023b);Experiment 2;Orientation
1;46;55;9;1.35888759978116;4;36;310;Houborg et al. (2023b);Experiment 2;Orientation
1;1;5;4;1.92185859940946;4;45;311;Houborg et al. (2023b);Experiment 2;Orientation
1;35;45;10;1.39270980097353;4;-34;312;Houborg et al. (2023b);Experiment 2;Orientation
1;156;156;0;1.32244979962707;4;59;313;Houborg et al. (2023b);Experiment 2;Orientation
1;47;47;0;1.30780339986086;4;-71;314;Houborg et al. (2023b);Experiment 2;Orientation
1;115;110;-5;1.09242819994688;4;-68;315;Houborg et al. (2023b);Experiment 2;Orientation
1;62;63;1;1.52570839971304;4;53;316;Houborg et al. (2023b);Experiment 2;Orientation
1;82;80;-2;2.09278050065041;4;-20;317;Houborg et al. (2023b);Experiment 2;Orientation
1;100;96;-4;2.00927959941328;4;-18;318;Houborg et al. (2023b);Experiment 2;Orientation
1;9;15;6;1.42343259975314;4;-89;319;Houborg et al. (2023b);Experiment 2;Orientation
1;151;151;0;1.79304370097816;4;38;320;Houborg et al. (2023b);Experiment 2;Orientation
1;89;89;0;1.72569490037858;4;62;321;Houborg et al. (2023b);Experiment 2;Orientation
1;115;109;-6;0.890312498435378;4;-26;322;Houborg et al. (2023b);Experiment 2;Orientation
1;151;145;-6;1.99287069961429;4;-36;323;Houborg et al. (2023b);Experiment 2;Orientation
1;166;149;-17;2.22201439924538;4;-15;324;Houborg et al. (2023b);Experiment 2;Orientation
1;103;108;5;1.59247670136392;4;63;325;Houborg et al. (2023b);Experiment 2;Orientation
1;117;118;1;2.10958419926465;4;-14;326;Houborg et al. (2023b);Experiment 2;Orientation
1;99;96;-3;1.17465309984982;4;18;327;Houborg et al. (2023b);Experiment 2;Orientation
1;61;75;14;2.35781479999423;4;38;328;Houborg et al. (2023b);Experiment 2;Orientation
1;171;167;-4;1.95883980020881;4;70;329;Houborg et al. (2023b);Experiment 2;Orientation
1;109;106;-3;1.19191090017557;4;62;330;Houborg et al. (2023b);Experiment 2;Orientation
1;89;82;-7;1.308952299878;4;20;331;Houborg et al. (2023b);Experiment 2;Orientation
1;158;157;-1;1.44249990023673;4;-69;332;Houborg et al. (2023b);Experiment 2;Orientation
1;99;99;0;2.55979219824076;4;59;333;Houborg et al. (2023b);Experiment 2;Orientation
1;119;111;-8;1.04185779951513;4;-20;334;Houborg et al. (2023b);Experiment 2;Orientation
1;135;127;-8;0.788502801209688;4;-16;335;Houborg et al. (2023b);Experiment 2;Orientation
1;65;57;-8;1.3426927998662;4;70;336;Houborg et al. (2023b);Experiment 2;Orientation
1;145;136;-9;2.50990849919617;4;-80;337;Houborg et al. (2023b);Experiment 2;Orientation
1;158;150;-8;1.50894550047815;4;-13;338;Houborg et al. (2023b);Experiment 2;Orientation
1;100;98;-2;1.44244389981031;4;58;339;Houborg et al. (2023b);Experiment 2;Orientation
1;147;142;-5;2.05950199998915;4;-47;340;Houborg et al. (2023b);Experiment 2;Orientation
1;150;145;-5;2.84338459931314;4;-3;341;Houborg et al. (2023b);Experiment 2;Orientation
1;70;77;7;2.2929967995733;4;80;342;Houborg et al. (2023b);Experiment 2;Orientation
1;125;121;-4;1.10878650099039;4;-55;343;Houborg et al. (2023b);Experiment 2;Orientation
1;9;14;5;3.05937789939344;4;-64;344;Houborg et al. (2023b);Experiment 2;Orientation
1;115;107;-8;1.84266960062087;4;74;345;Houborg et al. (2023b);Experiment 2;Orientation
1;178;5;7;1.97648919932544;4;-63;346;Houborg et al. (2023b);Experiment 2;Orientation
1;162;161;-1;2.19290780089796;4;16;347;Houborg et al. (2023b);Experiment 2;Orientation
1;31;35;4;1.49239419959486;4;-49;348;Houborg et al. (2023b);Experiment 2;Orientation
1;115;110;-5;1.57564019970596;4;-84;349;Houborg et al. (2023b);Experiment 2;Orientation
1;113;110;-3;1.75888529978693;4;2;350;Houborg et al. (2023b);Experiment 2;Orientation
1;78;75;-3;1.55949969962239;4;35;351;Houborg et al. (2023b);Experiment 2;Orientation
1;177;172;-5;2.50981920026243;4;81;352;Houborg et al. (2023b);Experiment 2;Orientation
1;155;146;-9;1.84250210039318;4;22;353;Houborg et al. (2023b);Experiment 2;Orientation
1;23;26;3;1.09194520115852;4;-48;354;Houborg et al. (2023b);Experiment 2;Orientation
1;60;56;-4;1.3088357988745;4;-37;355;Houborg et al. (2023b);Experiment 2;Orientation
1;67;62;-5;1.05794139951468;4;-7;356;Houborg et al. (2023b);Experiment 2;Orientation
1;165;151;-14;2.04279550164938;4;82;357;Houborg et al. (2023b);Experiment 2;Orientation
1;101;102;1;1.53970330022275;4;64;358;Houborg et al. (2023b);Experiment 2;Orientation
1;64;68;4;1.92616060003638;4;37;359;Houborg et al. (2023b);Experiment 2;Orientation
1;135;124;-11;1.12548170052469;4;-71;360;Houborg et al. (2023b);Experiment 2;Orientation
1;136;121;-15;2.07606349885464;4;-1;361;Houborg et al. (2023b);Experiment 2;Orientation
1;156;145;-11;1.07537779957056;4;-20;362;Houborg et al. (2023b);Experiment 2;Orientation
1;0;1;1;1.44217559881508;4;-24;363;Houborg et al. (2023b);Experiment 2;Orientation
1;34;39;5;1.32540309987962;4;-34;364;Houborg et al. (2023b);Experiment 2;Orientation
1;77;70;-7;1.07557779923081;4;-43;365;Houborg et al. (2023b);Experiment 2;Orientation
1;70;76;6;0.925181098282337;4;7;366;Houborg et al. (2023b);Experiment 2;Orientation
1;113;107;-6;1.67622010037303;4;-43;367;Houborg et al. (2023b);Experiment 2;Orientation
1;151;150;-1;1.25877040065825;4;-38;368;Houborg et al. (2023b);Experiment 2;Orientation
1;92;90;-2;1.64244129881263;4;59;369;Houborg et al. (2023b);Experiment 2;Orientation
1;64;65;1;1.0752479005605;4;28;370;Houborg et al. (2023b);Experiment 2;Orientation
1;110;111;1;1.92595239914954;4;-46;371;Houborg et al. (2023b);Experiment 2;Orientation
1;41;42;1;1.64222799986601;4;69;372;Houborg et al. (2023b);Experiment 2;Orientation
1;144;144;0;0.807324100285769;4;77;373;Houborg et al. (2023b);Experiment 2;Orientation
1;120;114;-6;2.17293489910662;4;24;374;Houborg et al. (2023b);Experiment 2;Orientation
1;141;131;-10;1.25931910052896;4;-21;375;Houborg et al. (2023b);Experiment 2;Orientation
1;87;85;-2;2.1765964999795;4;54;376;Houborg et al. (2023b);Experiment 2;Orientation
1;103;98;-5;2.77681640163064;4;-16;377;Houborg et al. (2023b);Experiment 2;Orientation
1;46;60;14;1.00864550098777;4;57;378;Houborg et al. (2023b);Experiment 2;Orientation
1;104;98;-6;1.45887080021203;4;-58;379;Houborg et al. (2023b);Experiment 2;Orientation
1;58;48;-10;1.59233630076051;4;46;380;Houborg et al. (2023b);Experiment 2;Orientation
1;54;52;-2;1.07520440034568;4;4;381;Houborg et al. (2023b);Experiment 2;Orientation
1;11;14;3;1.40880350023508;4;43;382;Houborg et al. (2023b);Experiment 2;Orientation
1;151;151;0;2.19327470101416;4;40;383;Houborg et al. (2023b);Experiment 2;Orientation
1;10;21;11;0.941838499158621;4;-39;384;Houborg et al. (2023b);Experiment 2;Orientation
1;44;31;-13;1.04193790070713;4;-34;385;Houborg et al. (2023b);Experiment 2;Orientation
1;57;61;4;2.23917829990387;4;-13;386;Houborg et al. (2023b);Experiment 2;Orientation
1;15;20;5;0.924835300073028;4;42;387;Houborg et al. (2023b);Experiment 2;Orientation
1;54;57;3;1.30892079882324;4;-39;388;Houborg et al. (2023b);Experiment 2;Orientation
1;16;20;4;1.138915900141;4;38;389;Houborg et al. (2023b);Experiment 2;Orientation
1;22;33;11;1.05865160003304;4;-6;390;Houborg et al. (2023b);Experiment 2;Orientation
1;30;26;-4;0.775446299463511;4;-8;391;Houborg et al. (2023b);Experiment 2;Orientation
1;25;19;-6;2.02622910030186;4;5;392;Houborg et al. (2023b);Experiment 2;Orientation
1;34;35;1;0.691866999492049;4;-9;393;Houborg et al. (2023b);Experiment 2;Orientation
1;88;90;2;1.84307139925659;4;-54;394;Houborg et al. (2023b);Experiment 2;Orientation
1;78;78;0;0.972064699977636;4;10;395;Houborg et al. (2023b);Experiment 2;Orientation
1;176;167;-9;0.941868999972939;4;82;396;Houborg et al. (2023b);Experiment 2;Orientation
1;174;164;-10;0.72529579885304;4;2;397;Houborg et al. (2023b);Experiment 2;Orientation
1;64;74;10;1.03889019973576;4;-70;398;Houborg et al. (2023b);Experiment 2;Orientation
1;30;36;6;1.14206810109317;4;34;399;Houborg et al. (2023b);Experiment 2;Orientation
1;10;11;1;1.57509369961917;4;20;400;Houborg et al. (2023b);Experiment 2;Orientation
1;148;134;-14;2.09288210049272;1;42;1;Houborg et al. (2023b);Experiment 2;Orientation
1;135;129;-6;2.71031020022929;1;13;2;Houborg et al. (2023b);Experiment 2;Orientation
1;130;129;-1;1.32592830061913;1;5;3;Houborg et al. (2023b);Experiment 2;Orientation
1;53;51;-2;2.83968769945204;1;77;4;Houborg et al. (2023b);Experiment 2;Orientation
1;12;19;7;2.27380230091512;1;41;5;Houborg et al. (2023b);Experiment 2;Orientation
1;142;129;-13;1.64286109991372;1;50;6;Houborg et al. (2023b);Experiment 2;Orientation
1;33;39;6;1.22245009988546;1;-71;7;Houborg et al. (2023b);Experiment 2;Orientation
1;158;154;-4;1.25524530000985;1;55;8;Houborg et al. (2023b);Experiment 2;Orientation
1;132;125;-7;1.1590973995626;1;26;9;Houborg et al. (2023b);Experiment 2;Orientation
1;177;0;3;2.27666020020843;1;-45;10;Houborg et al. (2023b);Experiment 2;Orientation
1;15;15;0;2.84013149887323;1;-18;11;Houborg et al. (2023b);Experiment 2;Orientation
1;153;154;1;2.62359270080924;1;42;12;Houborg et al. (2023b);Experiment 2;Orientation
1;115;113;-2;1.20914990082383;1;38;13;Houborg et al. (2023b);Experiment 2;Orientation
1;109;105;-4;1.32609680108726;1;6;14;Houborg et al. (2023b);Experiment 2;Orientation
1;145;140;-5;1.67597770132124;1;-36;15;Houborg et al. (2023b);Experiment 2;Orientation
1;135;123;-12;1.80978519842029;1;10;16;Houborg et al. (2023b);Experiment 2;Orientation
1;56;61;5;2.3600206002593;1;79;17;Houborg et al. (2023b);Experiment 2;Orientation
1;81;79;-2;0.825531199574471;1;-25;18;Houborg et al. (2023b);Experiment 2;Orientation
1;80;89;9;2.34333569929004;1;1;19;Houborg et al. (2023b);Experiment 2;Orientation
1;147;145;-2;1.83962270058692;1;-67;20;Houborg et al. (2023b);Experiment 2;Orientation
1;9;17;8;0.992286499589682;1;-42;21;Houborg et al. (2023b);Experiment 2;Orientation
1;83;85;2;2.39346889965236;1;-74;22;Houborg et al. (2023b);Experiment 2;Orientation
1;144;140;-4;0.974632000550628;1;-61;23;Houborg et al. (2023b);Experiment 2;Orientation
1;138;141;3;0.856814799830317;1;6;24;Houborg et al. (2023b);Experiment 2;Orientation
1;26;33;7;1.2737008985132;1;-68;25;Houborg et al. (2023b);Experiment 2;Orientation
1;65;69;4;1.54180650040507;1;-39;26;Houborg et al. (2023b);Experiment 2;Orientation
1;22;21;-1;0.925618600100279;1;43;27;Houborg et al. (2023b);Experiment 2;Orientation
1;49;61;12;2.4387917984277;1;-27;28;Houborg et al. (2023b);Experiment 2;Orientation
1;71;62;-9;1.59282930009067;1;-22;29;Houborg et al. (2023b);Experiment 2;Orientation
1;120;117;-3;2.77714329957962;1;-49;30;Houborg et al. (2023b);Experiment 2;Orientation
1;132;126;-6;2.25992869958282;1;-12;31;Houborg et al. (2023b);Experiment 2;Orientation
1;130;119;-11;2.67707129940391;1;2;32;Houborg et al. (2023b);Experiment 2;Orientation
1;73;69;-4;1.64269900135696;1;57;33;Houborg et al. (2023b);Experiment 2;Orientation
1;10;13;3;1.65950300171971;1;63;34;Houborg et al. (2023b);Experiment 2;Orientation
1;74;79;5;1.42600000090897;1;-64;35;Houborg et al. (2023b);Experiment 2;Orientation
1;148;143;-5;1.27595970034599;1;-74;36;Houborg et al. (2023b);Experiment 2;Orientation
1;74;78;4;2.22657409869134;1;74;37;Houborg et al. (2023b);Experiment 2;Orientation
1;149;150;1;2.72716940008104;1;-75;38;Houborg et al. (2023b);Experiment 2;Orientation
1;37;37;0;1.82632179930806;1;-68;39;Houborg et al. (2023b);Experiment 2;Orientation
1;146;133;-13;1.159253699705;1;71;40;Houborg et al. (2023b);Experiment 2;Orientation
1;94;93;-1;2.41026560030878;1;52;41;Houborg et al. (2023b);Experiment 2;Orientation
1;56;60;4;1.32588659971952;1;38;42;Houborg et al. (2023b);Experiment 2;Orientation
1;55;51;-4;1.18926309980452;1;1;43;Houborg et al. (2023b);Experiment 2;Orientation
1;164;156;-8;1.52617990039289;1;71;44;Houborg et al. (2023b);Experiment 2;Orientation
1;76;75;-1;1.47606430016458;1;88;45;Houborg et al. (2023b);Experiment 2;Orientation
1;145;134;-11;1.30971810035408;1;-69;46;Houborg et al. (2023b);Experiment 2;Orientation
1;49;52;3;1.80965960025787;1;-84;47;Houborg et al. (2023b);Experiment 2;Orientation
1;84;84;0;1.90969529934227;1;-35;48;Houborg et al. (2023b);Experiment 2;Orientation
1;35;39;4;1.5096002984792;1;49;49;Houborg et al. (2023b);Experiment 2;Orientation
1;52;55;3;2.04300120100379;1;-17;50;Houborg et al. (2023b);Experiment 2;Orientation
1;27;29;2;1.87459260039032;1;25;51;Houborg et al. (2023b);Experiment 2;Orientation
1;38;41;3;2.6437093000859;1;-11;52;Houborg et al. (2023b);Experiment 2;Orientation
1;6;6;0;1.32610379904509;1;32;53;Houborg et al. (2023b);Experiment 2;Orientation
1;18;17;-1;2.80842779949307;1;-12;54;Houborg et al. (2023b);Experiment 2;Orientation
1;65;73;8;1.13912639953196;1;-47;55;Houborg et al. (2023b);Experiment 2;Orientation
1;126;121;-5;0.909079801291227;1;-61;56;Houborg et al. (2023b);Experiment 2;Orientation
1;59;62;3;1.5394352003932;1;67;57;Houborg et al. (2023b);Experiment 2;Orientation
1;6;1;-5;1.74299949966371;1;53;58;Houborg et al. (2023b);Experiment 2;Orientation
1;45;47;2;2.04304010048509;1;-39;59;Houborg et al. (2023b);Experiment 2;Orientation
1;156;152;-4;2.02633300051093;1;69;60;Houborg et al. (2023b);Experiment 2;Orientation
1;63;73;10;1.44302570074797;1;-87;61;Houborg et al. (2023b);Experiment 2;Orientation
1;88;88;0;1.07800259999931;1;-25;62;Houborg et al. (2023b);Experiment 2;Orientation
1;94;91;-3;1.99309539981186;1;-6;63;Houborg et al. (2023b);Experiment 2;Orientation
1;20;19;-1;1.77625839971006;1;74;64;Houborg et al. (2023b);Experiment 2;Orientation
1;89;84;-5;1.1593928001821;1;-69;65;Houborg et al. (2023b);Experiment 2;Orientation
1;13;15;2;1.02329610101879;1;76;66;Houborg et al. (2023b);Experiment 2;Orientation
1;113;120;7;2.0766620002687;1;80;67;Houborg et al. (2023b);Experiment 2;Orientation
1;73;76;3;0.938979100435972;1;40;68;Houborg et al. (2023b);Experiment 2;Orientation
1;107;106;-1;1.45976319909096;1;-34;69;Houborg et al. (2023b);Experiment 2;Orientation
1;123;115;-8;1.42603269964457;1;-16;70;Houborg et al. (2023b);Experiment 2;Orientation
1;23;16;-7;1.3385387994349;1;-80;71;Houborg et al. (2023b);Experiment 2;Orientation
1;147;149;2;1.85970180109143;1;56;72;Houborg et al. (2023b);Experiment 2;Orientation
1;146;151;5;1.80530130118132;1;1;73;Houborg et al. (2023b);Experiment 2;Orientation
1;133;132;-1;1.57605559937656;1;13;74;Houborg et al. (2023b);Experiment 2;Orientation
1;28;34;6;3.35899320058525;1;-75;75;Houborg et al. (2023b);Experiment 2;Orientation
1;175;168;-7;2.24105250090361;1;33;76;Houborg et al. (2023b);Experiment 2;Orientation
1;13;13;0;3.02581270039082;1;-18;77;Houborg et al. (2023b);Experiment 2;Orientation
1;149;150;1;0.758856799453497;1;44;78;Houborg et al. (2023b);Experiment 2;Orientation
1;136;128;-8;2.31039549969137;1;13;79;Houborg et al. (2023b);Experiment 2;Orientation
1;30;37;7;2.47670890018344;1;-74;80;Houborg et al. (2023b);Experiment 2;Orientation
1;133;127;-6;2.52707960084081;1;77;81;Houborg et al. (2023b);Experiment 2;Orientation
1;115;104;-11;1.49169460125268;1;18;82;Houborg et al. (2023b);Experiment 2;Orientation
1;79;73;-6;2.27675029821694;1;36;83;Houborg et al. (2023b);Experiment 2;Orientation
1;5;12;7;2.19325540028512;1;74;84;Houborg et al. (2023b);Experiment 2;Orientation
1;155;152;-3;1.82639320008457;1;30;85;Houborg et al. (2023b);Experiment 2;Orientation
1;118;111;-7;1.42573869973421;1;37;86;Houborg et al. (2023b);Experiment 2;Orientation
1;21;29;8;2.37669809907675;1;-83;87;Houborg et al. (2023b);Experiment 2;Orientation
1;114;107;-7;2.46029540151358;1;87;88;Houborg et al. (2023b);Experiment 2;Orientation
1;83;78;-5;1.60952979885042;1;31;89;Houborg et al. (2023b);Experiment 2;Orientation
1;112;100;-12;2.8398132994771;1;-29;90;Houborg et al. (2023b);Experiment 2;Orientation
1;163;154;-9;1.10917219892144;1;-51;91;Houborg et al. (2023b);Experiment 2;Orientation
1;43;49;6;1.52614879980683;1;-60;92;Houborg et al. (2023b);Experiment 2;Orientation
1;53;53;0;1.12573999911547;1;-10;93;Houborg et al. (2023b);Experiment 2;Orientation
1;92;94;2;0.758913099765778;1;-39;94;Houborg et al. (2023b);Experiment 2;Orientation
1;64;56;-8;1.04245680011809;1;28;95;Houborg et al. (2023b);Experiment 2;Orientation
1;172;177;5;1.59279660135508;1;72;96;Houborg et al. (2023b);Experiment 2;Orientation
1;174;175;1;2.52703849971294;1;-2;97;Houborg et al. (2023b);Experiment 2;Orientation
1;16;20;4;2.17663059942424;1;-22;98;Houborg et al. (2023b);Experiment 2;Orientation
1;150;146;-4;0.958993799984455;1;46;99;Houborg et al. (2023b);Experiment 2;Orientation
1;139;136;-3;1.59295989945531;1;11;100;Houborg et al. (2023b);Experiment 2;Orientation
1;167;161;-6;1.95971670001745;2;-28;101;Houborg et al. (2023b);Experiment 2;Orientation
1;118;110;-8;1.47616190090775;2;49;102;Houborg et al. (2023b);Experiment 2;Orientation
1;52;57;5;0.842243801802397;2;66;103;Houborg et al. (2023b);Experiment 2;Orientation
1;140;130;-10;1.54292909987271;2;-88;104;Houborg et al. (2023b);Experiment 2;Orientation
1;66;64;-2;1.24245939962566;2;74;105;Houborg et al. (2023b);Experiment 2;Orientation
1;31;37;6;2.22666529938579;2;35;106;Houborg et al. (2023b);Experiment 2;Orientation
1;128;131;3;1.32587889954448;2;83;107;Houborg et al. (2023b);Experiment 2;Orientation
1;119;125;6;1.79106360115111;2;9;108;Houborg et al. (2023b);Experiment 2;Orientation
1;111;113;2;2.59249559976161;2;8;109;Houborg et al. (2023b);Experiment 2;Orientation
1;3;8;5;1.24262600019574;2;-72;110;Houborg et al. (2023b);Experiment 2;Orientation
1;131;125;-6;2.42679440043867;2;52;111;Houborg et al. (2023b);Experiment 2;Orientation
1;68;71;3;2.42463590018451;2;63;112;Houborg et al. (2023b);Experiment 2;Orientation
1;8;20;12;2.41018310002983;2;60;113;Houborg et al. (2023b);Experiment 2;Orientation
1;169;168;-1;1.70556450076401;2;19;114;Houborg et al. (2023b);Experiment 2;Orientation
1;145;139;-6;1.34258399903774;2;24;115;Houborg et al. (2023b);Experiment 2;Orientation
1;5;10;5;1.68929589912295;2;-40;116;Houborg et al. (2023b);Experiment 2;Orientation
1;54;57;3;2.5594938993454;2;-49;117;Houborg et al. (2023b);Experiment 2;Orientation
1;171;166;-5;1.39100540056825;2;63;118;Houborg et al. (2023b);Experiment 2;Orientation
1;135;125;-10;2.02659100107849;2;36;119;Houborg et al. (2023b);Experiment 2;Orientation
1;156;152;-4;1.67629330046475;2;-21;120;Houborg et al. (2023b);Experiment 2;Orientation
1;155;148;-7;2.27534539997578;2;1;121;Houborg et al. (2023b);Experiment 2;Orientation
1;122;117;-5;2.14366579987109;2;33;122;Houborg et al. (2023b);Experiment 2;Orientation
1;95;94;-1;1.54012179933488;2;27;123;Houborg et al. (2023b);Experiment 2;Orientation
1;136;129;-7;1.175746999681;2;-41;124;Houborg et al. (2023b);Experiment 2;Orientation
1;47;54;7;1.64028939977288;2;89;125;Houborg et al. (2023b);Experiment 2;Orientation
1;49;56;7;0.80543139949441;2;-2;126;Houborg et al. (2023b);Experiment 2;Orientation
1;101;102;1;0.842238198965788;2;-52;127;Houborg et al. (2023b);Experiment 2;Orientation
1;16;27;11;2.37346640042961;2;85;128;Houborg et al. (2023b);Experiment 2;Orientation
1;26;27;1;1.50937400013208;2;-10;129;Houborg et al. (2023b);Experiment 2;Orientation
1;155;150;-5;2.15999439917505;2;51;130;Houborg et al. (2023b);Experiment 2;Orientation
1;35;37;2;2.74421829916537;2;-60;131;Houborg et al. (2023b);Experiment 2;Orientation
1;119;124;5;1.52635450102389;2;-84;132;Houborg et al. (2023b);Experiment 2;Orientation
1;139;139;0;2.59359719976783;2;-20;133;Houborg et al. (2023b);Experiment 2;Orientation
1;159;158;-1;1.45929929986596;2;-20;134;Houborg et al. (2023b);Experiment 2;Orientation
1;87;85;-2;1.02365499921143;2;72;135;Houborg et al. (2023b);Experiment 2;Orientation
1;30;35;5;1.28992389887571;2;57;136;Houborg et al. (2023b);Experiment 2;Orientation
1;147;143;-4;2.10772019997239;2;63;137;Houborg et al. (2023b);Experiment 2;Orientation
1;112;109;-3;1.02564959973097;2;35;138;Houborg et al. (2023b);Experiment 2;Orientation
1;60;64;4;1.10920479893684;2;52;139;Houborg et al. (2023b);Experiment 2;Orientation
1;162;161;-1;1.0924169998616;2;78;140;Houborg et al. (2023b);Experiment 2;Orientation
1;147;134;-13;1.85969480127096;2;15;141;Houborg et al. (2023b);Experiment 2;Orientation
1;75;74;-1;2.34350700117648;2;72;142;Houborg et al. (2023b);Experiment 2;Orientation
1;134;132;-2;2.2766897007823;2;-59;143;Houborg et al. (2023b);Experiment 2;Orientation
1;119;123;4;2.94396699965;2;15;144;Houborg et al. (2023b);Experiment 2;Orientation
1;90;91;1;1.2759576998651;2;29;145;Houborg et al. (2023b);Experiment 2;Orientation
1;77;80;3;2.21033699996769;2;13;146;Houborg et al. (2023b);Experiment 2;Orientation
1;13;12;-1;2.16006029956043;2;64;147;Houborg et al. (2023b);Experiment 2;Orientation
1;132;130;-2;1.35920070111752;2;61;148;Houborg et al. (2023b);Experiment 2;Orientation
1;10;18;8;1.02576209977269;2;-58;149;Houborg et al. (2023b);Experiment 2;Orientation
1;38;42;4;2.17254629917443;2;-28;150;Houborg et al. (2023b);Experiment 2;Orientation
1;137;133;-4;1.67655959911644;2;81;151;Houborg et al. (2023b);Experiment 2;Orientation
1;80;81;1;1.3400689009577;2;57;152;Houborg et al. (2023b);Experiment 2;Orientation
1;83;79;-4;2.38073050044477;2;-3;153;Houborg et al. (2023b);Experiment 2;Orientation
1;108;106;-2;1.15919349901378;2;-25;154;Houborg et al. (2023b);Experiment 2;Orientation
1;125;119;-6;2.41024630144238;2;-17;155;Houborg et al. (2023b);Experiment 2;Orientation
1;156;146;-10;2.47692030109465;2;-31;156;Houborg et al. (2023b);Experiment 2;Orientation
1;155;167;12;1.13817909918725;2;1;157;Houborg et al. (2023b);Experiment 2;Orientation
1;9;23;14;2.4434120003134;2;-34;158;Houborg et al. (2023b);Experiment 2;Orientation
1;165;164;-1;2.71054240129888;2;24;159;Houborg et al. (2023b);Experiment 2;Orientation
1;133;129;-4;2.26004089973867;2;32;160;Houborg et al. (2023b);Experiment 2;Orientation
1;3;4;1;2.12678470090032;2;-50;161;Houborg et al. (2023b);Experiment 2;Orientation
1;92;92;0;2.21017559990287;2;-89;162;Houborg et al. (2023b);Experiment 2;Orientation
1;61;63;2;1.42308340035379;2;31;163;Houborg et al. (2023b);Experiment 2;Orientation
1;71;83;12;3.1434857994318;2;-10;164;Houborg et al. (2023b);Experiment 2;Orientation
1;38;31;-7;2.42676669918001;2;33;165;Houborg et al. (2023b);Experiment 2;Orientation
1;64;73;9;1.5261548999697;2;-26;166;Houborg et al. (2023b);Experiment 2;Orientation
1;20;14;-6;1.37607949972153;2;44;167;Houborg et al. (2023b);Experiment 2;Orientation
1;37;41;4;1.65963030047715;2;-17;168;Houborg et al. (2023b);Experiment 2;Orientation
1;138;125;-13;2.5102808997035;2;79;169;Houborg et al. (2023b);Experiment 2;Orientation
1;13;23;10;1.82201659865677;2;-55;170;Houborg et al. (2023b);Experiment 2;Orientation
1;1;177;-4;1.7596799004823;2;12;171;Houborg et al. (2023b);Experiment 2;Orientation
1;139;134;-5;0.72124969959259;2;42;172;Houborg et al. (2023b);Experiment 2;Orientation
1;61;64;3;1.05986090004444;2;78;173;Houborg et al. (2023b);Experiment 2;Orientation
1;89;91;2;2.21007799915969;2;-28;174;Houborg et al. (2023b);Experiment 2;Orientation
1;131;130;-1;1.57628680020571;2;-42;175;Houborg et al. (2023b);Experiment 2;Orientation
1;110;109;-1;1.09234339930117;2;21;176;Houborg et al. (2023b);Experiment 2;Orientation
1;29;38;9;2.54357589967549;2;81;177;Houborg et al. (2023b);Experiment 2;Orientation
1;114;108;-6;2.61063550040126;2;-85;178;Houborg et al. (2023b);Experiment 2;Orientation
1;42;37;-5;1.74082210101187;2;72;179;Houborg et al. (2023b);Experiment 2;Orientation
1;120;119;-1;1.2387885004282;2;-78;180;Houborg et al. (2023b);Experiment 2;Orientation
1;2;0;-2;0.792149798944592;2;-62;181;Houborg et al. (2023b);Experiment 2;Orientation
1;129;123;-6;1.75980910100043;2;53;182;Houborg et al. (2023b);Experiment 2;Orientation
1;152;140;-12;1.43934970162809;2;-23;183;Houborg et al. (2023b);Experiment 2;Orientation
1;80;80;0;1.0568959005177;2;72;184;Houborg et al. (2023b);Experiment 2;Orientation
1;122;118;-4;1.42215519957244;2;-42;185;Houborg et al. (2023b);Experiment 2;Orientation
1;49;52;3;2.7272081989795;2;73;186;Houborg et al. (2023b);Experiment 2;Orientation
1;54;63;9;1.49281319975853;2;-5;187;Houborg et al. (2023b);Experiment 2;Orientation
1;75;75;0;1.39260599948466;2;-21;188;Houborg et al. (2023b);Experiment 2;Orientation
1;77;91;14;2.0767589006573;2;-2;189;Houborg et al. (2023b);Experiment 2;Orientation
1;135;135;0;1.25925549864769;2;-58;190;Houborg et al. (2023b);Experiment 2;Orientation
1;38;43;5;1.69295419938862;2;-83;191;Houborg et al. (2023b);Experiment 2;Orientation
1;57;55;-2;1.9764191005379;2;-19;192;Houborg et al. (2023b);Experiment 2;Orientation
1;28;23;-5;1.22557600028813;2;29;193;Houborg et al. (2023b);Experiment 2;Orientation
1;69;64;-5;1.90926470048726;2;-41;194;Houborg et al. (2023b);Experiment 2;Orientation
1;105;101;-4;1.97395629994571;2;-36;195;Houborg et al. (2023b);Experiment 2;Orientation
1;25;20;-5;1.28912610001862;2;80;196;Houborg et al. (2023b);Experiment 2;Orientation
1;45;32;-13;1.69292030110955;2;-20;197;Houborg et al. (2023b);Experiment 2;Orientation
1;145;143;-2;2.15991570055485;2;80;198;Houborg et al. (2023b);Experiment 2;Orientation
1;16;12;-4;1.39271180145442;2;-51;199;Houborg et al. (2023b);Experiment 2;Orientation
1;51;53;2;2.1077699996531;2;-35;200;Houborg et al. (2023b);Experiment 2;Orientation
1;154;151;-3;1.68799779936671;3;77;201;Houborg et al. (2023b);Experiment 2;Orientation
1;116;116;0;1.9097304996103;3;38;202;Houborg et al. (2023b);Experiment 2;Orientation
1;98;95;-3;2.72710910066962;3;18;203;Houborg et al. (2023b);Experiment 2;Orientation
1;28;30;2;1.49119419977069;3;70;204;Houborg et al. (2023b);Experiment 2;Orientation
1;77;80;3;1.87640880048275;3;-49;205;Houborg et al. (2023b);Experiment 2;Orientation
1;26;29;3;1.97639549896121;3;51;206;Houborg et al. (2023b);Experiment 2;Orientation
1;98;106;8;1.9765269998461;3;-72;207;Houborg et al. (2023b);Experiment 2;Orientation
1;149;144;-5;1.39074090123177;3;-51;208;Houborg et al. (2023b);Experiment 2;Orientation
1;149;146;-3;1.05939459986985;3;0;209;Houborg et al. (2023b);Experiment 2;Orientation
1;132;130;-2;0.942262200638652;3;17;210;Houborg et al. (2023b);Experiment 2;Orientation
1;126;124;-2;2.5257462002337;3;6;211;Houborg et al. (2023b);Experiment 2;Orientation
1;28;32;4;2.02642129920423;3;-82;212;Houborg et al. (2023b);Experiment 2;Orientation
1;24;26;2;1.57613609917462;3;4;213;Houborg et al. (2023b);Experiment 2;Orientation
1;48;60;12;1.66001330129802;3;-24;214;Houborg et al. (2023b);Experiment 2;Orientation
1;105;101;-4;2.25999119877815;3;-57;215;Houborg et al. (2023b);Experiment 2;Orientation
1;26;28;2;1.22598869912326;3;79;216;Houborg et al. (2023b);Experiment 2;Orientation
1;101;101;0;1.1404820997268;3;-75;217;Houborg et al. (2023b);Experiment 2;Orientation
1;101;101;0;0.742069099098444;3;0;218;Houborg et al. (2023b);Experiment 2;Orientation
1;175;177;2;2.10992689989507;3;-74;219;Houborg et al. (2023b);Experiment 2;Orientation
1;94;91;-3;1.5594641007483;3;81;220;Houborg et al. (2023b);Experiment 2;Orientation
1;172;173;1;2.42663840018213;3;-78;221;Houborg et al. (2023b);Experiment 2;Orientation
1;155;154;-1;1.72673670016229;3;17;222;Houborg et al. (2023b);Experiment 2;Orientation
1;174;168;-6;2.42671469971538;3;-19;223;Houborg et al. (2023b);Experiment 2;Orientation
1;104;99;-5;2.32657280005515;3;70;224;Houborg et al. (2023b);Experiment 2;Orientation
1;136;135;-1;1.87638450041413;3;-32;225;Houborg et al. (2023b);Experiment 2;Orientation
1;67;63;-4;1.22353490069509;3;69;226;Houborg et al. (2023b);Experiment 2;Orientation
1;125;120;-5;1.15952280163765;3;-58;227;Houborg et al. (2023b);Experiment 2;Orientation
1;107;99;-8;2.04311159998178;3;18;228;Houborg et al. (2023b);Experiment 2;Orientation
1;148;141;-7;2.27435109950602;3;-41;229;Houborg et al. (2023b);Experiment 2;Orientation
1;82;74;-8;1.57643160037696;3;66;230;Houborg et al. (2023b);Experiment 2;Orientation
1;54;59;5;2.00981740094721;3;28;231;Houborg et al. (2023b);Experiment 2;Orientation
1;98;101;3;2.6106490008533;3;-44;232;Houborg et al. (2023b);Experiment 2;Orientation
1;167;159;-8;1.28862950019538;3;-69;233;Houborg et al. (2023b);Experiment 2;Orientation
1;18;11;-7;1.25910299830139;3;-31;234;Houborg et al. (2023b);Experiment 2;Orientation
1;132;139;7;0.658756300806999;3;66;235;Houborg et al. (2023b);Experiment 2;Orientation
1;119;121;2;1.69282080046833;3;13;236;Houborg et al. (2023b);Experiment 2;Orientation
1;173;170;-3;1.79283170029521;3;-54;237;Houborg et al. (2023b);Experiment 2;Orientation
1;25;25;0;1.55595939978957;3;-32;238;Houborg et al. (2023b);Experiment 2;Orientation
1;105;105;0;1.20916069857776;3;-80;239;Houborg et al. (2023b);Experiment 2;Orientation
1;172;168;-4;2.09362999908626;3;-67;240;Houborg et al. (2023b);Experiment 2;Orientation
1;91;92;1;1.07575889863074;3;81;241;Houborg et al. (2023b);Experiment 2;Orientation
1;30;29;-1;1.04249319992959;3;61;242;Houborg et al. (2023b);Experiment 2;Orientation
1;160;160;0;1.25927140004933;3;50;243;Houborg et al. (2023b);Experiment 2;Orientation
1;53;56;3;2.05990139953792;3;-73;244;Houborg et al. (2023b);Experiment 2;Orientation
1;0;175;-5;1.00924029946327;3;53;245;Houborg et al. (2023b);Experiment 2;Orientation
1;91;89;-2;1.64298379980028;3;89;246;Houborg et al. (2023b);Experiment 2;Orientation
1;27;32;5;1.00895639881492;3;64;247;Houborg et al. (2023b);Experiment 2;Orientation
1;68;65;-3;1.07616870105267;3;-41;248;Houborg et al. (2023b);Experiment 2;Orientation
1;115;112;-3;2.09310079924762;3;-47;249;Houborg et al. (2023b);Experiment 2;Orientation
1;88;86;-2;1.80963279865682;3;27;250;Houborg et al. (2023b);Experiment 2;Orientation
1;138;135;-3;1.75751399993896;3;-50;251;Houborg et al. (2023b);Experiment 2;Orientation
1;179;9;10;1.71003599837422;3;-41;252;Houborg et al. (2023b);Experiment 2;Orientation
1;78;75;-3;1.6432613003999;3;-79;253;Houborg et al. (2023b);Experiment 2;Orientation
1;162;161;-1;1.82314889878035;3;-84;254;Houborg et al. (2023b);Experiment 2;Orientation
1;176;176;0;1.85977640002966;3;-14;255;Houborg et al. (2023b);Experiment 2;Orientation
1;5;13;8;1.92499130032957;3;-9;256;Houborg et al. (2023b);Experiment 2;Orientation
1;41;56;15;2.19321849942207;3;-36;257;Houborg et al. (2023b);Experiment 2;Orientation
1;129;115;-14;2.00685139931738;3;-88;258;Houborg et al. (2023b);Experiment 2;Orientation
1;46;48;2;1.63953530043364;3;83;259;Houborg et al. (2023b);Experiment 2;Orientation
1;115;110;-5;2.1908073015511;3;-69;260;Houborg et al. (2023b);Experiment 2;Orientation
1;150;143;-7;1.64286200143397;3;-35;261;Houborg et al. (2023b);Experiment 2;Orientation
1;55;59;4;2.26001540012658;3;-85;262;Houborg et al. (2023b);Experiment 2;Orientation
1;7;15;8;1.7750107999891;3;48;263;Houborg et al. (2023b);Experiment 2;Orientation
1;172;167;-5;0.992544800043106;3;15;264;Houborg et al. (2023b);Experiment 2;Orientation
1;37;34;-3;1.0925181992352;3;-45;265;Houborg et al. (2023b);Experiment 2;Orientation
1;51;55;4;1.67633840069175;3;-14;266;Houborg et al. (2023b);Experiment 2;Orientation
1;93;100;7;0.992344900965691;3;-42;267;Houborg et al. (2023b);Experiment 2;Orientation
1;85;81;-4;2.22655279934406;3;8;268;Houborg et al. (2023b);Experiment 2;Orientation
1;70;78;8;0.925543401390314;3;15;269;Houborg et al. (2023b);Experiment 2;Orientation
1;146;134;-12;2.71044350042939;3;-76;270;Houborg et al. (2023b);Experiment 2;Orientation
1;13;28;15;2.19182940013707;3;-47;271;Houborg et al. (2023b);Experiment 2;Orientation
1;117;116;-1;1.75965120084584;3;76;272;Houborg et al. (2023b);Experiment 2;Orientation
1;65;59;-6;1.75888350047171;3;52;273;Houborg et al. (2023b);Experiment 2;Orientation
1;141;133;-8;1.0422868989408;3;-76;274;Houborg et al. (2023b);Experiment 2;Orientation
1;135;126;-9;1.75976059958339;3;6;275;Houborg et al. (2023b);Experiment 2;Orientation
1;135;126;-9;1.27597639895976;3;0;276;Houborg et al. (2023b);Experiment 2;Orientation
1;26;34;8;1.32583429850638;3;-71;277;Houborg et al. (2023b);Experiment 2;Orientation
1;163;170;7;0.871605800464749;3;43;278;Houborg et al. (2023b);Experiment 2;Orientation
1;44;42;-2;2.09353459998965;3;-61;279;Houborg et al. (2023b);Experiment 2;Orientation
1;42;45;3;1.25929930061102;3;2;280;Houborg et al. (2023b);Experiment 2;Orientation
1;165;156;-9;1.50947819836438;3;57;281;Houborg et al. (2023b);Experiment 2;Orientation
1;165;162;-3;2.74385800026357;3;0;282;Houborg et al. (2023b);Experiment 2;Orientation
1;65;77;12;1.72621499933302;3;-80;283;Houborg et al. (2023b);Experiment 2;Orientation
1;67;69;2;1.00902890041471;3;-2;284;Houborg et al. (2023b);Experiment 2;Orientation
1;99;100;1;1.2593072000891;3;-32;285;Houborg et al. (2023b);Experiment 2;Orientation
1;158;157;-1;0.941479800269008;3;-59;286;Houborg et al. (2023b);Experiment 2;Orientation
1;118;103;-15;2.17242989875376;3;40;287;Houborg et al. (2023b);Experiment 2;Orientation
1;86;83;-3;2.10982229933143;3;32;288;Houborg et al. (2023b);Experiment 2;Orientation
1;12;19;7;2.20996280014515;3;74;289;Houborg et al. (2023b);Experiment 2;Orientation
1;55;43;-12;1.27583920024335;3;-43;290;Houborg et al. (2023b);Experiment 2;Orientation
1;105;104;-1;2.15995120070875;3;-50;291;Houborg et al. (2023b);Experiment 2;Orientation
1;65;69;4;1.84296820126474;3;40;292;Houborg et al. (2023b);Experiment 2;Orientation
1;134;127;-7;1.1091150008142;3;-69;293;Houborg et al. (2023b);Experiment 2;Orientation
1;56;57;1;1.10922539979219;3;78;294;Houborg et al. (2023b);Experiment 2;Orientation
1;50;48;-2;2.67704769968987;3;6;295;Houborg et al. (2023b);Experiment 2;Orientation
1;75;73;-2;1.07580750063062;3;-25;296;Houborg et al. (2023b);Experiment 2;Orientation
1;53;58;5;3.07727989926934;3;22;297;Houborg et al. (2023b);Experiment 2;Orientation
1;152;143;-9;0.975670099258423;3;81;298;Houborg et al. (2023b);Experiment 2;Orientation
1;33;37;4;1.7598420009017;3;-61;299;Houborg et al. (2023b);Experiment 2;Orientation
1;141;125;-16;2.92611869983375;3;72;300;Houborg et al. (2023b);Experiment 2;Orientation
1;121;117;-4;1.90992820076644;4;20;301;Houborg et al. (2023b);Experiment 2;Orientation
1;162;156;-6;1.52594890072942;4;-41;302;Houborg et al. (2023b);Experiment 2;Orientation
1;88;85;-3;2.27670430019498;4;74;303;Houborg et al. (2023b);Experiment 2;Orientation
1;166;163;-3;1.69170540012419;4;-78;304;Houborg et al. (2023b);Experiment 2;Orientation
1;89;91;2;1.6597141996026;4;77;305;Houborg et al. (2023b);Experiment 2;Orientation
1;158;145;-13;1.02601969987154;4;-69;306;Houborg et al. (2023b);Experiment 2;Orientation
1;60;50;-10;1.37586329877377;4;-82;307;Houborg et al. (2023b);Experiment 2;Orientation
1;27;38;11;1.84306050091982;4;33;308;Houborg et al. (2023b);Experiment 2;Orientation
1;10;43;33;2.7938079982996;4;17;309;Houborg et al. (2023b);Experiment 2;Orientation
1;173;171;-2;1.60988939926028;4;17;310;Houborg et al. (2023b);Experiment 2;Orientation
1;143;129;-14;1.7595704998821;4;30;311;Houborg et al. (2023b);Experiment 2;Orientation
1;173;167;-6;1.6927630007267;4;-30;312;Houborg et al. (2023b);Experiment 2;Orientation
1;135;133;-2;1.6928934995085;4;38;313;Houborg et al. (2023b);Experiment 2;Orientation
1;51;53;2;1.49177000112832;4;84;314;Houborg et al. (2023b);Experiment 2;Orientation
1;152;136;-16;1.54311029985547;4;79;315;Houborg et al. (2023b);Experiment 2;Orientation
1;160;149;-11;1.84131430089474;4;-8;316;Houborg et al. (2023b);Experiment 2;Orientation
1;156;154;-2;1.75955239869654;4;4;317;Houborg et al. (2023b);Experiment 2;Orientation
1;13;25;12;1.25920099951327;4;-37;318;Houborg et al. (2023b);Experiment 2;Orientation
1;134;130;-4;1.57220199890435;4;59;319;Houborg et al. (2023b);Experiment 2;Orientation
1;110;109;-1;2.37671650014818;4;24;320;Houborg et al. (2023b);Experiment 2;Orientation
1;15;29;14;1.64292620122433;4;-85;321;Houborg et al. (2023b);Experiment 2;Orientation
1;16;28;12;0.958955200389028;4;-1;322;Houborg et al. (2023b);Experiment 2;Orientation
1;76;79;3;1.49315279908478;4;-60;323;Houborg et al. (2023b);Experiment 2;Orientation
1;22;31;9;2.2510572001338;4;54;324;Houborg et al. (2023b);Experiment 2;Orientation
1;150;150;0;0.958937499672174;4;52;325;Houborg et al. (2023b);Experiment 2;Orientation
1;149;135;-14;1.6763479989022;4;1;326;Houborg et al. (2023b);Experiment 2;Orientation
1;142;128;-14;2.02642839960754;4;7;327;Houborg et al. (2023b);Experiment 2;Orientation
1;175;178;3;2.26016600057483;4;-33;328;Houborg et al. (2023b);Experiment 2;Orientation
1;7;11;4;1.49103659950197;4;-12;329;Houborg et al. (2023b);Experiment 2;Orientation
1;100;94;-6;2.07645099982619;4;87;330;Houborg et al. (2023b);Experiment 2;Orientation
1;24;32;8;1.70957620069385;4;76;331;Houborg et al. (2023b);Experiment 2;Orientation
1;175;173;-2;1.8097913004458;4;29;332;Houborg et al. (2023b);Experiment 2;Orientation
1;138;135;-3;2.15868789888918;4;37;333;Houborg et al. (2023b);Experiment 2;Orientation
1;54;59;5;2.10997339896858;4;84;334;Houborg et al. (2023b);Experiment 2;Orientation
1;37;53;16;1.8429042994976;4;17;335;Houborg et al. (2023b);Experiment 2;Orientation
1;141;133;-8;0.825518000870943;4;76;336;Houborg et al. (2023b);Experiment 2;Orientation
1;59;49;-10;1.73881419934332;4;82;337;Houborg et al. (2023b);Experiment 2;Orientation
1;135;128;-7;0.774491200223565;4;-76;338;Houborg et al. (2023b);Experiment 2;Orientation
1;5;3;-2;1.03868889994919;4;-50;339;Houborg et al. (2023b);Experiment 2;Orientation
1;100;96;-4;1.35930429957807;4;85;340;Houborg et al. (2023b);Experiment 2;Orientation
1;69;75;6;1.19291579909623;4;31;341;Houborg et al. (2023b);Experiment 2;Orientation
1;8;5;-3;0.823354998603463;4;61;342;Houborg et al. (2023b);Experiment 2;Orientation
1;12;17;5;0.808947199955583;4;-4;343;Houborg et al. (2023b);Experiment 2;Orientation
1;45;45;0;1.79345870018005;4;-33;344;Houborg et al. (2023b);Experiment 2;Orientation
1;96;94;-2;1.70969199948013;4;-51;345;Houborg et al. (2023b);Experiment 2;Orientation
1;126;125;-1;2.20907379873097;4;-30;346;Houborg et al. (2023b);Experiment 2;Orientation
1;5;10;5;1.5742525998503;4;-59;347;Houborg et al. (2023b);Experiment 2;Orientation
1;14;14;0;1.32596020027995;4;-9;348;Houborg et al. (2023b);Experiment 2;Orientation
1;33;39;6;2.31006629951298;4;-19;349;Houborg et al. (2023b);Experiment 2;Orientation
1;8;21;13;1.9264698009938;4;25;350;Houborg et al. (2023b);Experiment 2;Orientation
1;16;21;5;1.25918930023909;4;-8;351;Houborg et al. (2023b);Experiment 2;Orientation
1;28;22;-6;2.0759525001049;4;-12;352;Houborg et al. (2023b);Experiment 2;Orientation
1;179;3;4;0.992313800379634;4;29;353;Houborg et al. (2023b);Experiment 2;Orientation
1;116;112;-4;1.02416640147567;4;63;354;Houborg et al. (2023b);Experiment 2;Orientation
1;106;107;1;2.67705870047212;4;10;355;Houborg et al. (2023b);Experiment 2;Orientation
1;90;90;0;1.27506729960442;4;16;356;Houborg et al. (2023b);Experiment 2;Orientation
1;165;149;-16;1.62629229947925;4;-75;357;Houborg et al. (2023b);Experiment 2;Orientation
1;65;71;6;1.85970989987254;4;-80;358;Houborg et al. (2023b);Experiment 2;Orientation
1;112;109;-3;2.19314659945667;4;-47;359;Houborg et al. (2023b);Experiment 2;Orientation
1;0;2;2;1.07564149983227;4;-68;360;Houborg et al. (2023b);Experiment 2;Orientation
1;155;153;-2;1.60949540138245;4;25;361;Houborg et al. (2023b);Experiment 2;Orientation
1;176;166;-10;2.54411800019443;4;-21;362;Houborg et al. (2023b);Experiment 2;Orientation
1;93;97;4;1.80977059900761;4;83;363;Houborg et al. (2023b);Experiment 2;Orientation
1;137;138;1;1.60880500078201;4;-44;364;Houborg et al. (2023b);Experiment 2;Orientation
1;75;73;-2;1.54277629964054;4;62;365;Houborg et al. (2023b);Experiment 2;Orientation
1;71;76;5;1.90661410056055;4;4;366;Houborg et al. (2023b);Experiment 2;Orientation
1;46;45;-1;1.14295170083642;4;25;367;Houborg et al. (2023b);Experiment 2;Orientation
1;50;50;0;2.15577949956059;4;-4;368;Houborg et al. (2023b);Experiment 2;Orientation
1;76;76;0;1.37599590048194;4;-26;369;Houborg et al. (2023b);Experiment 2;Orientation
1;144;128;-16;2.39309710077941;4;-68;370;Houborg et al. (2023b);Experiment 2;Orientation
1;95;95;0;2.14316110126674;4;49;371;Houborg et al. (2023b);Experiment 2;Orientation
1;47;53;6;1.89350569993258;4;48;372;Houborg et al. (2023b);Experiment 2;Orientation
1;28;23;-5;1.4242359995842;4;19;373;Houborg et al. (2023b);Experiment 2;Orientation
1;72;82;10;1.65956639871001;4;-44;374;Houborg et al. (2023b);Experiment 2;Orientation
1;68;78;10;1.35834519937634;4;4;375;Houborg et al. (2023b);Experiment 2;Orientation
1;5;15;10;1.53832919895649;4;63;376;Houborg et al. (2023b);Experiment 2;Orientation
1;137;129;-8;2.02643730118871;4;48;377;Houborg et al. (2023b);Experiment 2;Orientation
1;18;11;-7;2.67723529972136;4;-61;378;Houborg et al. (2023b);Experiment 2;Orientation
1;145;139;-6;0.742165999487042;4;53;379;Houborg et al. (2023b);Experiment 2;Orientation
1;115;110;-5;0.739985398948193;4;30;380;Houborg et al. (2023b);Experiment 2;Orientation
1;90;81;-9;0.975746201351285;4;25;381;Houborg et al. (2023b);Experiment 2;Orientation
1;111;116;5;0.792124800384045;4;-21;382;Houborg et al. (2023b);Experiment 2;Orientation
1;34;35;1;0.725851101800799;4;77;383;Houborg et al. (2023b);Experiment 2;Orientation
1;161;156;-5;1.39196860045195;4;53;384;Houborg et al. (2023b);Experiment 2;Orientation
1;136;135;-1;1.3903855998069;4;25;385;Houborg et al. (2023b);Experiment 2;Orientation
1;19;31;12;2.49389929883182;4;-63;386;Houborg et al. (2023b);Experiment 2;Orientation
1;107;103;-4;1.41236570104957;4;-88;387;Houborg et al. (2023b);Experiment 2;Orientation
1;109;112;3;0.891188900917768;4;-2;388;Houborg et al. (2023b);Experiment 2;Orientation
1;87;85;-2;0.909037100151181;4;22;389;Houborg et al. (2023b);Experiment 2;Orientation
1;61;63;2;1.83941639959812;4;26;390;Houborg et al. (2023b);Experiment 2;Orientation
1;125;117;-8;1.49199480004609;4;-64;391;Houborg et al. (2023b);Experiment 2;Orientation
1;85;83;-2;1.49266560003161;4;40;392;Houborg et al. (2023b);Experiment 2;Orientation
1;137;142;5;1.67626000009477;4;-52;393;Houborg et al. (2023b);Experiment 2;Orientation
1;75;69;-6;0.859215300530195;4;62;394;Houborg et al. (2023b);Experiment 2;Orientation
1;143;133;-10;1.25918189994991;4;-68;395;Houborg et al. (2023b);Experiment 2;Orientation
1;35;37;2;1.75960700027645;4;-72;396;Houborg et al. (2023b);Experiment 2;Orientation
1;113;112;-1;1.15923039987683;4;-78;397;Houborg et al. (2023b);Experiment 2;Orientation
1;36;40;4;0.773537101224065;4;77;398;Houborg et al. (2023b);Experiment 2;Orientation
1;12;12;0;0.758775198832154;4;24;399;Houborg et al. (2023b);Experiment 2;Orientation
1;160;155;-5;2.14344790019095;4;32;400;Houborg et al. (2023b);Experiment 2;Orientation
1;149;140;-9;0.89227470010519;5;11;401;Houborg et al. (2023b);Experiment 2;Orientation
1;27;31;4;1.54292039945722;5;-58;402;Houborg et al. (2023b);Experiment 2;Orientation
1;78;74;-4;1.07565939985216;5;-51;403;Houborg et al. (2023b);Experiment 2;Orientation
1;72;73;1;3.10743669979274;5;6;404;Houborg et al. (2023b);Experiment 2;Orientation
1;30;37;7;2.05999290011823;5;42;405;Houborg et al. (2023b);Experiment 2;Orientation
1;139;141;2;1.74415559880435;5;71;406;Houborg et al. (2023b);Experiment 2;Orientation
1;99;104;5;1.35723219998181;5;40;407;Houborg et al. (2023b);Experiment 2;Orientation
1;161;158;-3;1.69285249896348;5;-62;408;Houborg et al. (2023b);Experiment 2;Orientation
1;70;76;6;2.22682159952819;5;-89;409;Houborg et al. (2023b);Experiment 2;Orientation
1;68;69;1;1.44269569963217;5;2;410;Houborg et al. (2023b);Experiment 2;Orientation
1;160;160;0;0.675260599702597;5;88;411;Houborg et al. (2023b);Experiment 2;Orientation
1;148;141;-7;1.10907890088856;5;12;412;Houborg et al. (2023b);Experiment 2;Orientation
1;109;108;-1;1.05916859954596;5;39;413;Houborg et al. (2023b);Experiment 2;Orientation
1;49;49;0;1.52541549876332;5;60;414;Houborg et al. (2023b);Experiment 2;Orientation
1;115;119;4;2.41010590083897;5;-66;415;Houborg et al. (2023b);Experiment 2;Orientation
1;19;24;5;0.904576700180769;5;-84;416;Houborg et al. (2023b);Experiment 2;Orientation
1;85;84;-1;0.908900799229741;5;-66;417;Houborg et al. (2023b);Experiment 2;Orientation
1;60;66;6;1.15902569890022;5;25;418;Houborg et al. (2023b);Experiment 2;Orientation
1;26;32;6;1.44266960024834;5;34;419;Houborg et al. (2023b);Experiment 2;Orientation
1;50;55;5;0.692214800044894;5;-24;420;Houborg et al. (2023b);Experiment 2;Orientation
1;19;20;1;1.19034040160477;5;31;421;Houborg et al. (2023b);Experiment 2;Orientation
1;25;36;11;1.68954369984567;5;-6;422;Houborg et al. (2023b);Experiment 2;Orientation
1;48;47;-1;1.94313140027225;5;-23;423;Houborg et al. (2023b);Experiment 2;Orientation
1;109;108;-1;1.44281360134482;5;-61;424;Houborg et al. (2023b);Experiment 2;Orientation
1;163;153;-10;1.97329940088093;5;-54;425;Houborg et al. (2023b);Experiment 2;Orientation
1;28;41;13;2.66054379940033;5;-45;426;Houborg et al. (2023b);Experiment 2;Orientation
1;77;80;3;1.85965150035918;5;-49;427;Houborg et al. (2023b);Experiment 2;Orientation
1;31;30;-1;2.91065530106425;5;46;428;Houborg et al. (2023b);Experiment 2;Orientation
1;131;133;2;1.07598529942334;5;80;429;Houborg et al. (2023b);Experiment 2;Orientation
1;24;19;-5;2.44110309891403;5;-73;430;Houborg et al. (2023b);Experiment 2;Orientation
1;19;34;15;1.75840129889548;5;5;431;Houborg et al. (2023b);Experiment 2;Orientation
1;111;115;4;1.80969469994307;5;88;432;Houborg et al. (2023b);Experiment 2;Orientation
1;65;72;7;1.82249129936099;5;46;433;Houborg et al. (2023b);Experiment 2;Orientation
1;7;13;6;0.792181799188256;5;58;434;Houborg et al. (2023b);Experiment 2;Orientation
1;12;12;0;1.90712339989841;5;-5;435;Houborg et al. (2023b);Experiment 2;Orientation
1;97;87;-10;1.19267920032144;5;-85;436;Houborg et al. (2023b);Experiment 2;Orientation
1;159;160;1;1.35828410089016;5;-62;437;Houborg et al. (2023b);Experiment 2;Orientation
1;33;25;-8;1.64321889914572;5;-54;438;Houborg et al. (2023b);Experiment 2;Orientation
1;120;113;-7;1.07580599933863;5;-87;439;Houborg et al. (2023b);Experiment 2;Orientation
1;117;116;-1;0.792100099846721;5;3;440;Houborg et al. (2023b);Experiment 2;Orientation
1;134;131;-3;1.52644359879196;5;-17;441;Houborg et al. (2023b);Experiment 2;Orientation
1;7;15;8;1.80959420092404;5;-53;442;Houborg et al. (2023b);Experiment 2;Orientation
1;64;73;9;1.47587990015745;5;-57;443;Houborg et al. (2023b);Experiment 2;Orientation
1;72;71;-1;1.04121110029519;5;-8;444;Houborg et al. (2023b);Experiment 2;Orientation
1;174;162;-12;1.9430441018194;5;78;445;Houborg et al. (2023b);Experiment 2;Orientation
1;109;104;-5;1.49310760013759;5;65;446;Houborg et al. (2023b);Experiment 2;Orientation
1;149;148;-1;0.790128499269485;5;-40;447;Houborg et al. (2023b);Experiment 2;Orientation
1;155;146;-9;1.5761175006628;5;-6;448;Houborg et al. (2023b);Experiment 2;Orientation
1;145;146;1;1.4762156996876;5;10;449;Houborg et al. (2023b);Experiment 2;Orientation
1;29;41;12;1.78895379975438;5;-64;450;Houborg et al. (2023b);Experiment 2;Orientation
1;114;113;-1;0.992372199892998;5;-85;451;Houborg et al. (2023b);Experiment 2;Orientation
1;55;60;5;0.842276399955153;5;59;452;Houborg et al. (2023b);Experiment 2;Orientation
1;165;172;7;1.40928250178695;5;70;453;Houborg et al. (2023b);Experiment 2;Orientation
1;165;171;6;2.00991799868643;5;0;454;Houborg et al. (2023b);Experiment 2;Orientation
1;61;70;9;1.27213789895177;5;-76;455;Houborg et al. (2023b);Experiment 2;Orientation
1;159;157;-2;0.792102200910449;5;82;456;Houborg et al. (2023b);Experiment 2;Orientation
1;53;46;-7;1.54279499873519;5;-74;457;Houborg et al. (2023b);Experiment 2;Orientation
1;82;76;-6;1.476124599576;5;-29;458;Houborg et al. (2023b);Experiment 2;Orientation
1;166;162;-4;2.00980849936604;5;-84;459;Houborg et al. (2023b);Experiment 2;Orientation
1;72;80;8;1.12357449904084;5;-86;460;Houborg et al. (2023b);Experiment 2;Orientation
1;175;173;-2;2.21001050062478;5;77;461;Houborg et al. (2023b);Experiment 2;Orientation
1;171;168;-3;2.46020579896867;5;4;462;Houborg et al. (2023b);Experiment 2;Orientation
1;24;34;10;1.27580109983683;5;-33;463;Houborg et al. (2023b);Experiment 2;Orientation
1;171;164;-7;2.19330240041018;5;33;464;Houborg et al. (2023b);Experiment 2;Orientation
1;102;100;-2;1.0592343006283;5;69;465;Houborg et al. (2023b);Experiment 2;Orientation
1;152;144;-8;2.36030740104616;5;-50;466;Houborg et al. (2023b);Experiment 2;Orientation
1;77;73;-4;2.34331659972668;5;75;467;Houborg et al. (2023b);Experiment 2;Orientation
1;88;82;-6;1.44265970028937;5;-11;468;Houborg et al. (2023b);Experiment 2;Orientation
1;103;105;2;1.79300899989903;5;-15;469;Houborg et al. (2023b);Experiment 2;Orientation
1;103;101;-2;1.20913380011916;5;0;470;Houborg et al. (2023b);Experiment 2;Orientation
1;88;93;5;2.47697909921408;5;15;471;Houborg et al. (2023b);Experiment 2;Orientation
1;112;108;-4;1.20919540151954;5;-24;472;Houborg et al. (2023b);Experiment 2;Orientation
1;6;16;10;1.35929859988391;5;-74;473;Houborg et al. (2023b);Experiment 2;Orientation
1;152;158;6;1.95967349968851;5;34;474;Houborg et al. (2023b);Experiment 2;Orientation
1;69;69;0;2.20966330170631;5;83;475;Houborg et al. (2023b);Experiment 2;Orientation
1;55;51;-4;1.44276230037212;5;14;476;Houborg et al. (2023b);Experiment 2;Orientation
1;156;162;6;2.37683899886906;5;79;477;Houborg et al. (2023b);Experiment 2;Orientation
1;91;91;0;1.72635320015252;5;65;478;Houborg et al. (2023b);Experiment 2;Orientation
1;175;171;-4;1.04245449975133;5;-84;479;Houborg et al. (2023b);Experiment 2;Orientation
1;42;45;3;2.0764677003026;5;-47;480;Houborg et al. (2023b);Experiment 2;Orientation
1;92;91;-1;2.1766554005444;5;-50;481;Houborg et al. (2023b);Experiment 2;Orientation
1;128;127;-1;1.09240569919348;5;-36;482;Houborg et al. (2023b);Experiment 2;Orientation
1;115;115;0;1.30961409956217;5;13;483;Houborg et al. (2023b);Experiment 2;Orientation
1;47;48;1;2.05983579903841;5;68;484;Houborg et al. (2023b);Experiment 2;Orientation
1;153;140;-13;2.15997780114412;5;74;485;Houborg et al. (2023b);Experiment 2;Orientation
1;39;37;-2;0.855569299310446;5;-66;486;Houborg et al. (2023b);Experiment 2;Orientation
1;132;136;4;0.906620599329472;5;87;487;Houborg et al. (2023b);Experiment 2;Orientation
1;170;162;-8;1.05905080027878;5;-38;488;Houborg et al. (2023b);Experiment 2;Orientation
1;111;105;-6;2.36013489961624;5;59;489;Houborg et al. (2023b);Experiment 2;Orientation
1;52;50;-2;1.30919179879129;5;59;490;Houborg et al. (2023b);Experiment 2;Orientation
1;173;177;4;1.14244380034506;5;59;491;Houborg et al. (2023b);Experiment 2;Orientation
1;75;80;5;1.12464329972863;5;-82;492;Houborg et al. (2023b);Experiment 2;Orientation
1;148;146;-2;0.92176909931004;5;-73;493;Houborg et al. (2023b);Experiment 2;Orientation
1;104;105;1;2.31039509922266;5;44;494;Houborg et al. (2023b);Experiment 2;Orientation
1;36;41;5;2.47678579948843;5;68;495;Houborg et al. (2023b);Experiment 2;Orientation
1;125;121;-4;1.05905289947987;5;-89;496;Houborg et al. (2023b);Experiment 2;Orientation
1;32;36;4;1.52612730115652;5;-87;497;Houborg et al. (2023b);Experiment 2;Orientation
1;177;174;-3;0.992447700351477;5;35;498;Houborg et al. (2023b);Experiment 2;Orientation
1;175;176;1;0.738046800717711;5;2;499;Houborg et al. (2023b);Experiment 2;Orientation
1;94;94;0;0.806676499545574;5;81;500;Houborg et al. (2023b);Experiment 2;Orientation
1;114;118;4;2.41012220084667;6;-20;501;Houborg et al. (2023b);Experiment 2;Orientation
1;157;138;-19;2.39360780082643;6;-43;502;Houborg et al. (2023b);Experiment 2;Orientation
1;80;80;0;1.50932940095663;6;77;503;Houborg et al. (2023b);Experiment 2;Orientation
1;147;140;-7;1.12609280087054;6;-67;504;Houborg et al. (2023b);Experiment 2;Orientation
1;127;119;-8;0.675398498773575;6;20;505;Houborg et al. (2023b);Experiment 2;Orientation
1;157;152;-5;0.758842399343848;6;-30;506;Houborg et al. (2023b);Experiment 2;Orientation
1;45;50;5;0.85918159969151;6;-68;507;Houborg et al. (2023b);Experiment 2;Orientation
1;54;59;5;2.24333099834621;6;-9;508;Houborg et al. (2023b);Experiment 2;Orientation
1;98;94;-4;1.82222530059516;6;-44;509;Houborg et al. (2023b);Experiment 2;Orientation
1;33;35;2;1.19245349988341;6;65;510;Houborg et al. (2023b);Experiment 2;Orientation
1;12;19;7;1.40941810049117;6;21;511;Houborg et al. (2023b);Experiment 2;Orientation
1;129;124;-5;1.65941610001028;6;63;512;Houborg et al. (2023b);Experiment 2;Orientation
1;87;89;2;1.69295240007341;6;42;513;Houborg et al. (2023b);Experiment 2;Orientation
1;4;4;0;2.55786439962685;6;83;514;Houborg et al. (2023b);Experiment 2;Orientation
1;124;114;-10;2.22676560096443;6;60;515;Houborg et al. (2023b);Experiment 2;Orientation
1;163;170;7;1.20920209959149;6;-39;516;Houborg et al. (2023b);Experiment 2;Orientation
1;169;170;1;2.72716080024838;6;-6;517;Houborg et al. (2023b);Experiment 2;Orientation
1;33;37;4;1.80980969965458;6;-44;518;Houborg et al. (2023b);Experiment 2;Orientation
1;106;109;3;1.1884564999491;6;-73;519;Houborg et al. (2023b);Experiment 2;Orientation
1;11;22;11;1.19248249940574;6;-85;520;Houborg et al. (2023b);Experiment 2;Orientation
1;160;164;4;2.39350490085781;6;31;521;Houborg et al. (2023b);Experiment 2;Orientation
1;115;111;-4;1.29222530126572;6;45;522;Houborg et al. (2023b);Experiment 2;Orientation
1;97;101;4;0.942408099770546;6;18;523;Houborg et al. (2023b);Experiment 2;Orientation
1;179;3;4;1.95967789925635;6;-82;524;Houborg et al. (2023b);Experiment 2;Orientation
1;126;121;-5;2.41055370122194;6;53;525;Houborg et al. (2023b);Experiment 2;Orientation
1;148;147;-1;2.06015880033374;6;-22;526;Houborg et al. (2023b);Experiment 2;Orientation
1;5;11;6;1.87654300034046;6;-37;527;Houborg et al. (2023b);Experiment 2;Orientation
1;55;49;-6;1.90543200075626;6;-50;528;Houborg et al. (2023b);Experiment 2;Orientation
1;44;43;-1;1.12585180066526;6;11;529;Houborg et al. (2023b);Experiment 2;Orientation
1;111;117;6;1.52607870101929;6;-67;530;Houborg et al. (2023b);Experiment 2;Orientation
1;86;91;5;0.889060400426388;6;25;531;Houborg et al. (2023b);Experiment 2;Orientation
1;26;20;-6;1.94312250055373;6;60;532;Houborg et al. (2023b);Experiment 2;Orientation
1;14;24;10;1.45929340086877;6;12;533;Houborg et al. (2023b);Experiment 2;Orientation
1;115;113;-2;1.00925160013139;6;79;534;Houborg et al. (2023b);Experiment 2;Orientation
1;129;128;-1;1.19062830135226;6;-14;535;Houborg et al. (2023b);Experiment 2;Orientation
1;28;39;11;1.0925987996161;6;-79;536;Houborg et al. (2023b);Experiment 2;Orientation
1;73;74;1;1.24054140038788;6;-45;537;Houborg et al. (2023b);Experiment 2;Orientation
1;163;151;-12;1.42379719950259;6;-90;538;Houborg et al. (2023b);Experiment 2;Orientation
1;104;110;6;1.42581490054727;6;59;539;Houborg et al. (2023b);Experiment 2;Orientation
1;25;34;9;2.47142069973052;6;79;540;Houborg et al. (2023b);Experiment 2;Orientation
1;19;25;6;1.3591476008296;6;6;541;Houborg et al. (2023b);Experiment 2;Orientation
1;0;1;1;1.1740345004946;6;19;542;Houborg et al. (2023b);Experiment 2;Orientation
1;96;102;6;2.5566786993295;6;84;543;Houborg et al. (2023b);Experiment 2;Orientation
1;173;169;-4;0.975933799520135;6;-77;544;Houborg et al. (2023b);Experiment 2;Orientation
1;152;149;-3;2.27552860043943;6;21;545;Houborg et al. (2023b);Experiment 2;Orientation
1;162;156;-6;1.44269209913909;6;-10;546;Houborg et al. (2023b);Experiment 2;Orientation
1;85;82;-3;1.79290629923344;6;77;547;Houborg et al. (2023b);Experiment 2;Orientation
1;65;71;6;1.44197260029614;6;20;548;Houborg et al. (2023b);Experiment 2;Orientation
1;173;172;-1;0.975697699934244;6;72;549;Houborg et al. (2023b);Experiment 2;Orientation
1;95;92;-3;1.57475830055773;6;78;550;Houborg et al. (2023b);Experiment 2;Orientation
1;84;87;3;2.10667769983411;6;11;551;Houborg et al. (2023b);Experiment 2;Orientation
1;122;124;2;1.12408710084856;6;-38;552;Houborg et al. (2023b);Experiment 2;Orientation
1;40;34;-6;2.99407609924674;6;82;553;Houborg et al. (2023b);Experiment 2;Orientation
1;131;135;4;2.22649049945176;6;89;554;Houborg et al. (2023b);Experiment 2;Orientation
1;38;40;2;1.39267480000854;6;-87;555;Houborg et al. (2023b);Experiment 2;Orientation
1;22;31;9;1.65980339981616;6;16;556;Houborg et al. (2023b);Experiment 2;Orientation
1;165;169;4;1.25917680002749;6;37;557;Houborg et al. (2023b);Experiment 2;Orientation
1;115;112;-3;1.8392683994025;6;50;558;Houborg et al. (2023b);Experiment 2;Orientation
1;45;51;6;1.57610519975424;6;70;559;Houborg et al. (2023b);Experiment 2;Orientation
1;147;141;-6;1.42448549903929;6;78;560;Houborg et al. (2023b);Experiment 2;Orientation
1;114;112;-2;2.47476050071418;6;33;561;Houborg et al. (2023b);Experiment 2;Orientation
1;57;62;5;1.34247040003538;6;57;562;Houborg et al. (2023b);Experiment 2;Orientation
1;103;98;-5;0.875667398795485;6;-46;563;Houborg et al. (2023b);Experiment 2;Orientation
1;113;103;-10;0.959074400365353;6;-10;564;Houborg et al. (2023b);Experiment 2;Orientation
1;166;166;0;1.85971760004759;6;-53;565;Houborg et al. (2023b);Experiment 2;Orientation
1;175;169;-6;1.39271879941225;6;-9;566;Houborg et al. (2023b);Experiment 2;Orientation
1;179;178;-1;2.17658429965377;6;-4;567;Houborg et al. (2023b);Experiment 2;Orientation
1;110;100;-10;1.67538449913263;6;69;568;Houborg et al. (2023b);Experiment 2;Orientation
1;15;20;5;1.65949990041554;6;-85;569;Houborg et al. (2023b);Experiment 2;Orientation
1;179;179;0;1.57597530074418;6;16;570;Houborg et al. (2023b);Experiment 2;Orientation
1;132;122;-10;1.42592140100896;6;47;571;Houborg et al. (2023b);Experiment 2;Orientation
1;49;52;3;1.5243129003793;6;83;572;Houborg et al. (2023b);Experiment 2;Orientation
1;114;117;3;1.0090553984046;6;-65;573;Houborg et al. (2023b);Experiment 2;Orientation
1;2;8;6;1.80962090007961;6;-68;574;Houborg et al. (2023b);Experiment 2;Orientation
1;166;163;-3;0.708766100928187;6;16;575;Houborg et al. (2023b);Experiment 2;Orientation
1;30;26;-4;1.73977100104094;6;-44;576;Houborg et al. (2023b);Experiment 2;Orientation
1;28;24;-4;0.60868770070374;6;2;577;Houborg et al. (2023b);Experiment 2;Orientation
1;119;124;5;2.0931912008673;6;89;578;Houborg et al. (2023b);Experiment 2;Orientation
1;163;153;-10;1.04244510084391;6;-44;579;Houborg et al. (2023b);Experiment 2;Orientation
1;158;148;-10;1.80973699875176;6;5;580;Houborg et al. (2023b);Experiment 2;Orientation
1;28;31;3;1.84294600039721;6;-50;581;Houborg et al. (2023b);Experiment 2;Orientation
1;80;81;1;2.44147399999201;6;-52;582;Houborg et al. (2023b);Experiment 2;Orientation
1;179;179;0;1.75760389864445;6;81;583;Houborg et al. (2023b);Experiment 2;Orientation
1;175;173;-2;1.3929922003299;6;4;584;Houborg et al. (2023b);Experiment 2;Orientation
1;94;92;-2;1.44281459972262;6;81;585;Houborg et al. (2023b);Experiment 2;Orientation
1;114;104;-10;1.84281449951231;6;-20;586;Houborg et al. (2023b);Experiment 2;Orientation
1;1;0;-1;1.40960909985006;6;-67;587;Houborg et al. (2023b);Experiment 2;Orientation
1;59;49;-10;1.42614169977605;6;-58;588;Houborg et al. (2023b);Experiment 2;Orientation
1;170;157;-13;2.67714059911668;6;69;589;Houborg et al. (2023b);Experiment 2;Orientation
1;153;151;-2;0.842205600813031;6;17;590;Houborg et al. (2023b);Experiment 2;Orientation
1;76;64;-12;1.97656410001218;6;77;591;Houborg et al. (2023b);Experiment 2;Orientation
1;8;21;13;1.25758820027113;6;68;592;Houborg et al. (2023b);Experiment 2;Orientation
1;152;143;-9;0.808810599148273;6;36;593;Houborg et al. (2023b);Experiment 2;Orientation
1;126;120;-6;1.02341339923441;6;26;594;Houborg et al. (2023b);Experiment 2;Orientation
1;133;132;-1;1.25962499901652;6;-7;595;Houborg et al. (2023b);Experiment 2;Orientation
1;88;90;2;1.00908569991589;6;45;596;Houborg et al. (2023b);Experiment 2;Orientation
1;51;61;10;0.858944699168205;6;37;597;Houborg et al. (2023b);Experiment 2;Orientation
1;99;99;0;1.70965350046754;6;-48;598;Houborg et al. (2023b);Experiment 2;Orientation
1;96;95;-1;0.959086200222373;6;3;599;Houborg et al. (2023b);Experiment 2;Orientation
1;15;13;-2;1.60953349992633;6;81;600;Houborg et al. (2023b);Experiment 2;Orientation
2;119;118;-1;2.92252369970083;1;NaN;1;Houborg et al. (2023b);Experiment 2;Orientation
2;47;50;3;1.27551070041955;1;72;2;Houborg et al. (2023b);Experiment 2;Orientation
2;75;65;-10;1.74215209856629;1;-28;3;Houborg et al. (2023b);Experiment 2;Orientation
2;133;133;0;1.07498759962618;1;-58;4;Houborg et al. (2023b);Experiment 2;Orientation
2;18;29;11;2.29293799959123;1;-65;5;Houborg et al. (2023b);Experiment 2;Orientation
2;31;38;7;1.45540880039334;1;-13;6;Houborg et al. (2023b);Experiment 2;Orientation
2;96;108;12;1.85931169986725;1;-65;7;Houborg et al. (2023b);Experiment 2;Orientation
2;86;75;-11;1.15863200090826;1;10;8;Houborg et al. (2023b);Experiment 2;Orientation
2;57;47;-10;2.09320130012929;1;29;9;Houborg et al. (2023b);Experiment 2;Orientation
2;85;87;2;1.37438539974391;1;-28;10;Houborg et al. (2023b);Experiment 2;Orientation
2;49;47;-2;1.20861230045557;1;36;11;Houborg et al. (2023b);Experiment 2;Orientation
2;1;0;-1;2.60988229885697;1;48;12;Houborg et al. (2023b);Experiment 2;Orientation
2;79;77;-2;0.875040298327804;1;-78;13;Houborg et al. (2023b);Experiment 2;Orientation
2;130;134;4;1.37153689935803;1;-51;14;Houborg et al. (2023b);Experiment 2;Orientation
2;129;127;-2;2.68985329940915;1;1;15;Houborg et al. (2023b);Experiment 2;Orientation
2;37;38;1;1.54244459979236;1;-88;16;Houborg et al. (2023b);Experiment 2;Orientation
2;35;39;4;1.64250739850104;1;2;17;Houborg et al. (2023b);Experiment 2;Orientation
2;2;177;-5;1.15864890068769;1;33;18;Houborg et al. (2023b);Experiment 2;Orientation
2;70;45;-25;2.19275769963861;1;-68;19;Houborg et al. (2023b);Experiment 2;Orientation
2;173;170;-3;1.19205999933183;1;77;20;Houborg et al. (2023b);Experiment 2;Orientation
2;46;46;0;2.5063763000071;1;-53;21;Houborg et al. (2023b);Experiment 2;Orientation
2;145;148;3;1.04076009988785;1;81;22;Houborg et al. (2023b);Experiment 2;Orientation
2;152;148;-4;2.35871559940279;1;-7;23;Houborg et al. (2023b);Experiment 2;Orientation
2;114;130;16;1.82546680048108;1;38;24;Houborg et al. (2023b);Experiment 2;Orientation
2;32;34;2;1.60828640125692;1;82;25;Houborg et al. (2023b);Experiment 2;Orientation
2;62;56;-6;0.87504779919982;1;-30;26;Houborg et al. (2023b);Experiment 2;Orientation
2;175;172;-3;0.897220000624657;1;67;27;Houborg et al. (2023b);Experiment 2;Orientation
2;116;121;5;1.86765720136464;1;59;28;Houborg et al. (2023b);Experiment 2;Orientation
2;55;55;0;1.14003580063581;1;61;29;Houborg et al. (2023b);Experiment 2;Orientation
2;106;128;22;1.03786109946668;1;-51;30;Houborg et al. (2023b);Experiment 2;Orientation
2;149;139;-10;2.9094964992255;1;-43;31;Houborg et al. (2023b);Experiment 2;Orientation
2;85;76;-9;3.07217189855874;1;64;32;Houborg et al. (2023b);Experiment 2;Orientation
2;84;82;-2;1.95622340030968;1;1;33;Houborg et al. (2023b);Experiment 2;Orientation
2;122;122;0;0.972076799720526;1;-38;34;Houborg et al. (2023b);Experiment 2;Orientation
2;84;81;-3;1.95925829932094;1;38;35;Houborg et al. (2023b);Experiment 2;Orientation
2;17;20;3;1.42819510027766;1;67;36;Houborg et al. (2023b);Experiment 2;Orientation
2;90;88;-2;2.52660810016096;1;-73;37;Houborg et al. (2023b);Experiment 2;Orientation
2;98;105;7;1.20775119960308;1;-8;38;Houborg et al. (2023b);Experiment 2;Orientation
2;158;147;-11;2.0420623999089;1;-60;39;Houborg et al. (2023b);Experiment 2;Orientation
2;133;129;-4;1.09188489988446;1;25;40;Houborg et al. (2023b);Experiment 2;Orientation
2;155;149;-6;1.28833950124681;1;-22;41;Houborg et al. (2023b);Experiment 2;Orientation
2;138;142;4;2.47608179971576;1;17;42;Houborg et al. (2023b);Experiment 2;Orientation
2;32;42;10;2.04268660023808;1;-74;43;Houborg et al. (2023b);Experiment 2;Orientation
2;16;21;5;1.55150309950113;1;16;44;Houborg et al. (2023b);Experiment 2;Orientation
2;157;155;-2;2.60980370081961;1;39;45;Houborg et al. (2023b);Experiment 2;Orientation
2;67;68;1;2.13322790153325;1;90;46;Houborg et al. (2023b);Experiment 2;Orientation
2;22;38;16;1.35283350013196;1;45;47;Houborg et al. (2023b);Experiment 2;Orientation
2;68;35;-33;3.92621770128608;1;-46;48;Houborg et al. (2023b);Experiment 2;Orientation
2;143;130;-13;1.824217999354;1;-75;49;Houborg et al. (2023b);Experiment 2;Orientation
2;77;64;-13;1.12919530086219;1;66;50;Houborg et al. (2023b);Experiment 2;Orientation
2;128;127;-1;2.26775290071964;1;-51;51;Houborg et al. (2023b);Experiment 2;Orientation
2;22;27;5;1.29254749976099;1;-74;52;Houborg et al. (2023b);Experiment 2;Orientation
2;10;18;8;2.4765336997807;1;12;53;Houborg et al. (2023b);Experiment 2;Orientation
2;43;41;-2;2.02601710148156;1;-33;54;Houborg et al. (2023b);Experiment 2;Orientation
2;72;71;-1;1.50888139940798;1;-29;55;Houborg et al. (2023b);Experiment 2;Orientation
2;179;175;-4;1.07525810040534;1;73;56;Houborg et al. (2023b);Experiment 2;Orientation
2;140;143;3;1.59230779856443;1;39;57;Houborg et al. (2023b);Experiment 2;Orientation
2;137;138;1;2.30959540046751;1;3;58;Houborg et al. (2023b);Experiment 2;Orientation
2;34;41;7;1.15604789927602;1;-77;59;Houborg et al. (2023b);Experiment 2;Orientation
2;17;36;19;1.70921139977872;1;17;60;Houborg et al. (2023b);Experiment 2;Orientation
2;140;130;-10;1.32545810006559;1;57;61;Houborg et al. (2023b);Experiment 2;Orientation
2;158;149;-9;3.6137789003551;1;-18;62;Houborg et al. (2023b);Experiment 2;Orientation
2;160;165;5;2.85944510065019;1;-2;63;Houborg et al. (2023b);Experiment 2;Orientation
2;22;29;7;1.78857740014791;1;-42;64;Houborg et al. (2023b);Experiment 2;Orientation
2;55;53;-2;1.80663830041885;1;-33;65;Houborg et al. (2023b);Experiment 2;Orientation
2;85;83;-2;1.12317360006273;1;-30;66;Houborg et al. (2023b);Experiment 2;Orientation
2;124;116;-8;1.47560350038111;1;-39;67;Houborg et al. (2023b);Experiment 2;Orientation
2;41;43;2;1.65897510014474;1;83;68;Houborg et al. (2023b);Experiment 2;Orientation
2;97;101;4;2.10941120050848;1;-56;69;Houborg et al. (2023b);Experiment 2;Orientation
2;49;40;-9;1.25868690013885;1;48;70;Houborg et al. (2023b);Experiment 2;Orientation
2;61;53;-8;1.97563230060041;1;-12;71;Houborg et al. (2023b);Experiment 2;Orientation
2;93;99;6;1.57381689921021;1;-32;72;Houborg et al. (2023b);Experiment 2;Orientation
2;31;38;7;1.35500260069966;1;62;73;Houborg et al. (2023b);Experiment 2;Orientation
2;10;14;4;1.35856799967587;1;21;74;Houborg et al. (2023b);Experiment 2;Orientation
2;71;69;-2;2.07473840005696;1;-61;75;Houborg et al. (2023b);Experiment 2;Orientation
2;108;109;1;2.17606060020626;1;-37;76;Houborg et al. (2023b);Experiment 2;Orientation
2;91;107;16;1.75820380076766;1;17;77;Houborg et al. (2023b);Experiment 2;Orientation
2;82;83;1;1.54169020056725;1;9;78;Houborg et al. (2023b);Experiment 2;Orientation
2;75;70;-5;2.24287480115891;1;7;79;Houborg et al. (2023b);Experiment 2;Orientation
2;25;24;-1;1.5556127987802;1;50;80;Houborg et al. (2023b);Experiment 2;Orientation
2;90;103;13;2.44313059933484;1;-65;81;Houborg et al. (2023b);Experiment 2;Orientation
2;126;138;12;1.62571919895709;1;-36;82;Houborg et al. (2023b);Experiment 2;Orientation
2;139;142;3;1.94265569932759;1;-13;83;Houborg et al. (2023b);Experiment 2;Orientation
2;116;114;-2;1.1418731007725;1;23;84;Houborg et al. (2023b);Experiment 2;Orientation
2;14;22;8;2.77666419930756;1;-78;85;Houborg et al. (2023b);Experiment 2;Orientation
2;148;144;-4;2.04273470118642;1;46;86;Houborg et al. (2023b);Experiment 2;Orientation
2;1;7;6;2.24289449863136;1;-33;87;Houborg et al. (2023b);Experiment 2;Orientation
2;24;31;7;1.65911730006337;1;-23;88;Houborg et al. (2023b);Experiment 2;Orientation
2;65;59;-6;1.3921109996736;1;-41;89;Houborg et al. (2023b);Experiment 2;Orientation
2;16;18;2;1.85923909954727;1;49;90;Houborg et al. (2023b);Experiment 2;Orientation
2;25;28;3;1.00846960023046;1;-9;91;Houborg et al. (2023b);Experiment 2;Orientation
2;88;87;-1;1.58894300088286;1;-63;92;Houborg et al. (2023b);Experiment 2;Orientation
2;113;119;6;1.00696440041065;1;-25;93;Houborg et al. (2023b);Experiment 2;Orientation
2;175;174;-1;1.20860849879682;1;-62;94;Houborg et al. (2023b);Experiment 2;Orientation
2;35;31;-4;3.02679840102792;1;-40;95;Houborg et al. (2023b);Experiment 2;Orientation
2;110;120;10;1.20415930077434;1;-75;96;Houborg et al. (2023b);Experiment 2;Orientation
2;168;159;-9;1.90925750136375;1;-58;97;Houborg et al. (2023b);Experiment 2;Orientation
2;136;135;-1;1.15858999826014;1;32;98;Houborg et al. (2023b);Experiment 2;Orientation
2;165;162;-3;2.07366950064898;1;-29;99;Houborg et al. (2023b);Experiment 2;Orientation
2;29;37;8;1.2587924990803;1;-44;100;Houborg et al. (2023b);Experiment 2;Orientation
2;112;116;4;1.19163380004466;2;-83;101;Houborg et al. (2023b);Experiment 2;Orientation
2;98;111;13;2.15974229946733;2;14;102;Houborg et al. (2023b);Experiment 2;Orientation
2;175;174;-1;2.30956950038671;2;-77;103;Houborg et al. (2023b);Experiment 2;Orientation
2;140;151;11;1.20863620005548;2;35;104;Houborg et al. (2023b);Experiment 2;Orientation
2;24;23;-1;1.09193209931254;2;-64;105;Houborg et al. (2023b);Experiment 2;Orientation
2;51;46;-5;2.02609070017934;2;-27;106;Houborg et al. (2023b);Experiment 2;Orientation
2;171;166;-5;2.02595159970224;2;60;107;Houborg et al. (2023b);Experiment 2;Orientation
2;133;137;4;2.74309669993818;2;38;108;Houborg et al. (2023b);Experiment 2;Orientation
2;159;155;-4;2.05593620054424;2;-26;109;Houborg et al. (2023b);Experiment 2;Orientation
2;45;44;-1;1.30876309983432;2;-66;110;Houborg et al. (2023b);Experiment 2;Orientation
2;64;54;-10;2.29292289912701;2;-19;111;Houborg et al. (2023b);Experiment 2;Orientation
2;77;63;-14;1.90921629965305;2;-13;112;Houborg et al. (2023b);Experiment 2;Orientation
2;3;1;-2;2.62653009966016;2;74;113;Houborg et al. (2023b);Experiment 2;Orientation
2;45;38;-7;2.72481680102646;2;-42;114;Houborg et al. (2023b);Experiment 2;Orientation
2;52;46;-6;1.24202149920166;2;-7;115;Houborg et al. (2023b);Experiment 2;Orientation
2;99;107;8;1.57557229883969;2;-47;116;Houborg et al. (2023b);Experiment 2;Orientation
2;15;21;6;2.32291090115905;2;84;117;Houborg et al. (2023b);Experiment 2;Orientation
2;145;147;2;1.79251730069518;2;50;118;Houborg et al. (2023b);Experiment 2;Orientation
2;152;142;-10;1.28969939984381;2;-7;119;Houborg et al. (2023b);Experiment 2;Orientation
2;126;129;3;1.6923049017787;2;26;120;Houborg et al. (2023b);Experiment 2;Orientation
2;89;87;-2;2.2428230997175;2;37;121;Houborg et al. (2023b);Experiment 2;Orientation
2;52;46;-6;1.19675900042057;2;37;122;Houborg et al. (2023b);Experiment 2;Orientation
2;131;123;-8;1.79163900017738;2;-79;123;Houborg et al. (2023b);Experiment 2;Orientation
2;3;5;2;1.40555020049214;2;-52;124;Houborg et al. (2023b);Experiment 2;Orientation
2;60;44;-16;1.0887790992856;2;-57;125;Houborg et al. (2023b);Experiment 2;Orientation
2;83;84;1;0.955942198634148;2;-23;126;Houborg et al. (2023b);Experiment 2;Orientation
2;45;43;-2;2.17604710161686;2;38;127;Houborg et al. (2023b);Experiment 2;Orientation
2;7;5;-2;1.65910179913044;2;38;128;Houborg et al. (2023b);Experiment 2;Orientation
2;70;58;-12;1.19196300022304;2;-63;129;Houborg et al. (2023b);Experiment 2;Orientation
2;84;82;-2;2.85975479893386;2;-14;130;Houborg et al. (2023b);Experiment 2;Orientation
2;39;40;1;1.69215229898691;2;45;131;Houborg et al. (2023b);Experiment 2;Orientation
2;22;19;-3;2.20949479937553;2;17;132;Houborg et al. (2023b);Experiment 2;Orientation
2;67;64;-3;1.95945569872856;2;-45;133;Houborg et al. (2023b);Experiment 2;Orientation
2;15;16;1;2.55759599991143;2;52;134;Houborg et al. (2023b);Experiment 2;Orientation
2;41;34;-7;1.59267329983413;2;-26;135;Houborg et al. (2023b);Experiment 2;Orientation
2;135;129;-6;1.74230260029435;2;86;136;Houborg et al. (2023b);Experiment 2;Orientation
2;33;37;4;1.20875990018249;2;-78;137;Houborg et al. (2023b);Experiment 2;Orientation
2;12;19;7;1.12104250118136;2;21;138;Houborg et al. (2023b);Experiment 2;Orientation
2;107;110;3;2.22628260031343;2;85;139;Houborg et al. (2023b);Experiment 2;Orientation
2;78;75;-3;2.04270699992776;2;29;140;Houborg et al. (2023b);Experiment 2;Orientation
2;5;6;1;1.34216069988906;2;73;141;Houborg et al. (2023b);Experiment 2;Orientation
2;117;126;9;2.87663830071688;2;68;142;Houborg et al. (2023b);Experiment 2;Orientation
2;12;9;-3;2.4263119995594;2;-75;143;Houborg et al. (2023b);Experiment 2;Orientation
2;65;67;2;2.89352500066161;2;-53;144;Houborg et al. (2023b);Experiment 2;Orientation
2;85;84;-1;1.75932659953833;2;-20;145;Houborg et al. (2023b);Experiment 2;Orientation
2;49;47;-2;2.14281270094216;2;36;146;Houborg et al. (2023b);Experiment 2;Orientation
2;124;127;3;2.92679990082979;2;-75;147;Houborg et al. (2023b);Experiment 2;Orientation
2;85;71;-14;1.17418830096722;2;39;148;Houborg et al. (2023b);Experiment 2;Orientation
2;11;13;2;1.07524489983916;2;74;149;Houborg et al. (2023b);Experiment 2;Orientation
2;65;61;-4;2.04280969873071;2;-54;150;Houborg et al. (2023b);Experiment 2;Orientation
2;40;36;-4;0.891267901286483;2;25;151;Houborg et al. (2023b);Experiment 2;Orientation
2;85;79;-6;1.4921658989042;2;-45;152;Houborg et al. (2023b);Experiment 2;Orientation
2;11;10;-1;1.14208989962935;2;74;153;Houborg et al. (2023b);Experiment 2;Orientation
2;138;146;8;2.76001030020416;2;53;154;Houborg et al. (2023b);Experiment 2;Orientation
