obs;theta;resp;error;rt;block;delta;trial;study;experiment;stimulus;expnum
1;7;12;5;0.590742999920622;2;78;71;Blonde et al. (2023);Experiment 2;Orientation;1
1;118;107;-11;1.46441860008053;2;69;72;Blonde et al. (2023);Experiment 2;Orientation;1
1;120;118;-2;1.34879969991744;2;-2;73;Blonde et al. (2023);Experiment 2;Orientation;1
1;44;44;0;1.55683689983562;2;76;74;Blonde et al. (2023);Experiment 2;Orientation;1
1;59;58;-1;0.914573699934408;2;-15;75;Blonde et al. (2023);Experiment 2;Orientation;1
1;56;65;9;1.04900930006988;2;3;76;Blonde et al. (2023);Experiment 2;Orientation;1
1;84;61;-23;1.36470150016248;2;-28;77;Blonde et al. (2023);Experiment 2;Orientation;1
1;127;109;-18;3.19869669992477;2;-43;78;Blonde et al. (2023);Experiment 2;Orientation;1
1;151;153;2;1.44891220005229;2;-24;79;Blonde et al. (2023);Experiment 2;Orientation;1
1;145;154;9;1.17480789986439;2;6;80;Blonde et al. (2023);Experiment 2;Orientation;1
1;125;129;4;0.931797600118443;2;20;81;Blonde et al. (2023);Experiment 2;Orientation;1
1;116;114;-2;1.20633229985833;2;9;82;Blonde et al. (2023);Experiment 2;Orientation;1
1;116;131;15;1.031151099829;2;0;83;Blonde et al. (2023);Experiment 2;Orientation;1
1;131;141;10;1.08962209988385;2;-15;84;Blonde et al. (2023);Experiment 2;Orientation;1
1;0;0;0;1.37387030012906;2;-49;85;Blonde et al. (2023);Experiment 2;Orientation;1
1;122;124;2;1.38165129977278;2;58;86;Blonde et al. (2023);Experiment 2;Orientation;1
1;28;30;2;1.21574690006673;2;-86;87;Blonde et al. (2023);Experiment 2;Orientation;1
1;73;18;-55;1.34052599989809;2;-45;88;Blonde et al. (2023);Experiment 2;Orientation;1
1;117;114;-3;1.25715869991109;2;-44;89;Blonde et al. (2023);Experiment 2;Orientation;1
1;84;73;-11;1.11544349999167;2;33;90;Blonde et al. (2023);Experiment 2;Orientation;1
1;136;123;-13;1.18955509993248;2;-52;91;Blonde et al. (2023);Experiment 2;Orientation;1
1;120;126;6;0.957206699997187;2;16;92;Blonde et al. (2023);Experiment 2;Orientation;1
1;160;155;-5;0.565611699828878;2;-40;93;Blonde et al. (2023);Experiment 2;Orientation;1
1;134;131;-3;0.982239400036633;2;26;94;Blonde et al. (2023);Experiment 2;Orientation;1
1;50;62;12;1.43142259982415;2;84;95;Blonde et al. (2023);Experiment 2;Orientation;1
1;82;78;-4;0.93228660011664;2;-32;96;Blonde et al. (2023);Experiment 2;Orientation;1
1;18;45;27;1.207219599979;2;64;97;Blonde et al. (2023);Experiment 2;Orientation;1
1;44;49;5;1.87268579984084;2;-26;98;Blonde et al. (2023);Experiment 2;Orientation;1
1;19;21;2;0.907165100099519;2;25;99;Blonde et al. (2023);Experiment 2;Orientation;1
1;168;92;-76;1.72258589998819;2;31;100;Blonde et al. (2023);Experiment 2;Orientation;1
1;105;104;-1;1.23972159996629;2;63;101;Blonde et al. (2023);Experiment 2;Orientation;1
1;18;24;6;1.03136749984697;2;87;102;Blonde et al. (2023);Experiment 2;Orientation;1
1;2;13;11;1.36545750009827;2;16;103;Blonde et al. (2023);Experiment 2;Orientation;1
1;36;33;-3;1.16564560006373;2;-34;104;Blonde et al. (2023);Experiment 2;Orientation;1
1;5;12;7;1.43083740002476;2;31;105;Blonde et al. (2023);Experiment 2;Orientation;1
1;175;170;-5;1.36490669986233;2;10;106;Blonde et al. (2023);Experiment 2;Orientation;1
1;56;37;-19;1.22383450018242;2;-61;107;Blonde et al. (2023);Experiment 2;Orientation;1
1;30;14;-16;1.84785960009322;2;26;108;Blonde et al. (2023);Experiment 2;Orientation;1
1;43;47;4;1.35719490004703;2;-13;109;Blonde et al. (2023);Experiment 2;Orientation;1
1;4;13;9;2.04046459984966;2;39;110;Blonde et al. (2023);Experiment 2;Orientation;1
1;33;24;-9;1.69876629998907;2;-29;111;Blonde et al. (2023);Experiment 2;Orientation;1
1;45;24;-21;1.14808030007407;2;-12;112;Blonde et al. (2023);Experiment 2;Orientation;1
1;68;56;-12;1.13215949991718;2;-23;113;Blonde et al. (2023);Experiment 2;Orientation;1
1;126;147;21;1.20720970002003;2;-58;114;Blonde et al. (2023);Experiment 2;Orientation;1
1;19;16;-3;0.581577299861237;2;-73;115;Blonde et al. (2023);Experiment 2;Orientation;1
1;5;2;-3;1.87246070010588;2;14;116;Blonde et al. (2023);Experiment 2;Orientation;1
1;97;105;8;1.22385289985687;2;88;117;Blonde et al. (2023);Experiment 2;Orientation;1
1;85;88;3;2.84015600010753;2;12;118;Blonde et al. (2023);Experiment 2;Orientation;1
1;166;9;23;4.4319533999078;2;-81;119;Blonde et al. (2023);Experiment 2;Orientation;1
1;104;113;9;1.0742220999673;2;62;120;Blonde et al. (2023);Experiment 2;Orientation;1
1;85;82;-3;1.2487796000205;2;19;121;Blonde et al. (2023);Experiment 2;Orientation;1
1;10;7;-3;0.890703100012615;2;75;122;Blonde et al. (2023);Experiment 2;Orientation;1
1;163;179;16;0.774800699902698;2;27;123;Blonde et al. (2023);Experiment 2;Orientation;1
1;173;151;-22;6.10519289993681;2;-10;124;Blonde et al. (2023);Experiment 2;Orientation;1
1;138;128;-10;1.45705450000241;2;35;125;Blonde et al. (2023);Experiment 2;Orientation;1
1;167;172;5;2.98209930001758;2;-29;126;Blonde et al. (2023);Experiment 2;Orientation;1
1;3;177;-6;3.80580139998347;2;-16;127;Blonde et al. (2023);Experiment 2;Orientation;1
1;59;61;2;1.04889350011945;2;-56;128;Blonde et al. (2023);Experiment 2;Orientation;1
1;46;55;9;1.68149210000411;2;13;129;Blonde et al. (2023);Experiment 2;Orientation;1
1;24;50;26;1.18968460010365;2;22;130;Blonde et al. (2023);Experiment 2;Orientation;1
1;85;81;-4;0.933136099949479;2;-61;131;Blonde et al. (2023);Experiment 2;Orientation;1
1;117;99;-18;1.44784840010107;2;-32;132;Blonde et al. (2023);Experiment 2;Orientation;1
1;24;29;5;1.23222639993764;2;-87;133;Blonde et al. (2023);Experiment 2;Orientation;1
1;148;141;-7;1.3808083999902;2;56;134;Blonde et al. (2023);Experiment 2;Orientation;1
1;119;109;-10;1.14062119997106;2;29;135;Blonde et al. (2023);Experiment 2;Orientation;1
1;116;112;-4;1.89870000001974;2;3;136;Blonde et al. (2023);Experiment 2;Orientation;1
1;2;9;7;1.93181249988265;2;-66;137;Blonde et al. (2023);Experiment 2;Orientation;1
1;118;129;11;1.59053059993312;2;64;138;Blonde et al. (2023);Experiment 2;Orientation;1
1;88;88;0;1.23948240000755;2;30;139;Blonde et al. (2023);Experiment 2;Orientation;1
1;52;52;0;1.49755989992991;2;36;140;Blonde et al. (2023);Experiment 2;Orientation;1
1;109;120;11;1.45707929995842;4;-33;211;Blonde et al. (2023);Experiment 2;Orientation;1
1;2;1;-1;1.74039829988033;4;-73;212;Blonde et al. (2023);Experiment 2;Orientation;1
1;158;144;-14;0.482371800113469;4;24;213;Blonde et al. (2023);Experiment 2;Orientation;1
1;107;103;-4;1.59743839991279;4;51;214;Blonde et al. (2023);Experiment 2;Orientation;1
1;136;31;75;1.48236379981972;4;-29;215;Blonde et al. (2023);Experiment 2;Orientation;1
1;155;137;-18;3.20574770006351;4;-19;216;Blonde et al. (2023);Experiment 2;Orientation;1
1;143;159;16;1.39880060008727;4;12;217;Blonde et al. (2023);Experiment 2;Orientation;1
1;88;75;-13;1.2891937000677;4;55;218;Blonde et al. (2023);Experiment 2;Orientation;1
1;99;100;1;1.22392539982684;4;-11;219;Blonde et al. (2023);Experiment 2;Orientation;1
1;143;108;-35;1.23907429981045;4;-44;220;Blonde et al. (2023);Experiment 2;Orientation;1
1;122;104;-18;2.01541460002773;4;21;221;Blonde et al. (2023);Experiment 2;Orientation;1
1;62;50;-12;0.640461999922991;4;60;222;Blonde et al. (2023);Experiment 2;Orientation;1
1;88;97;9;1.32374999998137;4;-26;223;Blonde et al. (2023);Experiment 2;Orientation;1
1;21;70;49;3.3810048000887;4;67;224;Blonde et al. (2023);Experiment 2;Orientation;1
1;91;84;-7;1.13963680015877;4;-70;225;Blonde et al. (2023);Experiment 2;Orientation;1
1;140;138;-2;0.907405799953267;4;-49;226;Blonde et al. (2023);Experiment 2;Orientation;1
1;132;125;-7;0.873623999999836;4;8;227;Blonde et al. (2023);Experiment 2;Orientation;1
1;38;36;-2;1.33225949993357;4;-86;228;Blonde et al. (2023);Experiment 2;Orientation;1
1;74;77;3;1.4406447999645;4;-36;229;Blonde et al. (2023);Experiment 2;Orientation;1
1;176;160;-16;0.948766800109297;4;78;230;Blonde et al. (2023);Experiment 2;Orientation;1
1;103;104;1;1.75586739997379;4;73;231;Blonde et al. (2023);Experiment 2;Orientation;1
1;179;12;13;0.882105699973181;4;-76;232;Blonde et al. (2023);Experiment 2;Orientation;1
1;94;152;58;0.848850999958813;4;85;233;Blonde et al. (2023);Experiment 2;Orientation;1
1;146;153;7;0.948856300208718;4;-52;234;Blonde et al. (2023);Experiment 2;Orientation;1
1;177;177;0;1.32322430005297;4;-31;235;Blonde et al. (2023);Experiment 2;Orientation;1
1;179;174;-5;1.49740880005993;4;-2;236;Blonde et al. (2023);Experiment 2;Orientation;1
1;30;25;-5;1.8058808001224;4;-31;237;Blonde et al. (2023);Experiment 2;Orientation;1
1;22;22;0;1.05718990019523;4;8;238;Blonde et al. (2023);Experiment 2;Orientation;1
1;95;93;-2;1.82364050019532;4;-73;239;Blonde et al. (2023);Experiment 2;Orientation;1
1;171;90;-81;1.44059030013159;4;-76;240;Blonde et al. (2023);Experiment 2;Orientation;1
1;74;71;-3;0.840570000000298;4;-83;241;Blonde et al. (2023);Experiment 2;Orientation;1
1;65;61;-4;1.6571171998512;4;9;242;Blonde et al. (2023);Experiment 2;Orientation;1
1;49;57;8;1.48111460008658;4;16;243;Blonde et al. (2023);Experiment 2;Orientation;1
1;126;130;4;1.04831129987724;4;-77;244;Blonde et al. (2023);Experiment 2;Orientation;1
1;120;118;-2;1.79882580018602;4;6;245;Blonde et al. (2023);Experiment 2;Orientation;1
1;168;161;-7;0.732239499920979;4;-48;246;Blonde et al. (2023);Experiment 2;Orientation;1
1;109;152;43;0.682469999883324;4;59;247;Blonde et al. (2023);Experiment 2;Orientation;1
1;144;24;60;0.948901400202885;4;-35;248;Blonde et al. (2023);Experiment 2;Orientation;1
1;157;163;6;0.997860400006175;4;-13;249;Blonde et al. (2023);Experiment 2;Orientation;1
1;18;22;4;1.12358010001481;4;-41;250;Blonde et al. (2023);Experiment 2;Orientation;1
1;150;147;-3;1.5974964001216;4;48;251;Blonde et al. (2023);Experiment 2;Orientation;1
1;165;168;3;1.18965939991176;4;-15;252;Blonde et al. (2023);Experiment 2;Orientation;1
1;173;170;-3;1.34892169991508;4;-8;253;Blonde et al. (2023);Experiment 2;Orientation;1
1;50;45;-5;1.19047729996964;4;-57;254;Blonde et al. (2023);Experiment 2;Orientation;1
1;76;117;41;1.52388069988228;4;-26;255;Blonde et al. (2023);Experiment 2;Orientation;1
1;71;61;-10;1.2976790999528;4;5;256;Blonde et al. (2023);Experiment 2;Orientation;1
1;87;69;-18;1.0487345000729;4;-16;257;Blonde et al. (2023);Experiment 2;Orientation;1
1;27;29;2;1.03210250008851;4;60;258;Blonde et al. (2023);Experiment 2;Orientation;1
1;32;33;1;0.49034299980849;4;-5;259;Blonde et al. (2023);Experiment 2;Orientation;1
1;120;121;1;0.882169099990278;4;-88;260;Blonde et al. (2023);Experiment 2;Orientation;1
1;161;155;-6;1.2404751998838;4;-41;261;Blonde et al. (2023);Experiment 2;Orientation;1
1;119;108;-11;1.18216600012966;4;42;262;Blonde et al. (2023);Experiment 2;Orientation;1
1;44;33;-11;0.865604399936274;4;75;263;Blonde et al. (2023);Experiment 2;Orientation;1
1;16;14;-2;1.59044050006196;4;28;264;Blonde et al. (2023);Experiment 2;Orientation;1
1;88;82;-6;1.16435629990883;4;-72;265;Blonde et al. (2023);Experiment 2;Orientation;1
1;137;133;-4;0.915596199920401;4;-49;266;Blonde et al. (2023);Experiment 2;Orientation;1
1;80;74;-6;1.0404745999258;4;57;267;Blonde et al. (2023);Experiment 2;Orientation;1
1;105;119;14;0.881291700061411;4;-25;268;Blonde et al. (2023);Experiment 2;Orientation;1
1;33;38;5;1.42382659995928;4;72;269;Blonde et al. (2023);Experiment 2;Orientation;1
1;73;60;-13;0.948884200071916;4;-40;270;Blonde et al. (2023);Experiment 2;Orientation;1
1;174;163;-11;0.573767599882558;4;79;271;Blonde et al. (2023);Experiment 2;Orientation;1
1;30;18;-12;1.29781449981965;4;-36;272;Blonde et al. (2023);Experiment 2;Orientation;1
1;140;162;22;1.97380260005593;4;70;273;Blonde et al. (2023);Experiment 2;Orientation;1
1;134;142;8;0.998534500133246;4;6;274;Blonde et al. (2023);Experiment 2;Orientation;1
1;18;3;-15;0.823062999872491;4;-64;275;Blonde et al. (2023);Experiment 2;Orientation;1
1;25;12;-13;0.757271399954334;4;-7;276;Blonde et al. (2023);Experiment 2;Orientation;1
1;10;43;33;1.11548430006951;4;15;277;Blonde et al. (2023);Experiment 2;Orientation;1
1;84;79;-5;1.08115580002777;4;-74;278;Blonde et al. (2023);Experiment 2;Orientation;1
1;15;23;8;1.30640419991687;4;69;279;Blonde et al. (2023);Experiment 2;Orientation;1
1;124;95;-29;1.34083339991048;4;71;280;Blonde et al. (2023);Experiment 2;Orientation;1
2;83;81;-2;2.17397520004306;1;NaN;1;Blonde et al. (2023);Experiment 2;Orientation;1
2;133;134;1;1.32378199999221;1;-50;2;Blonde et al. (2023);Experiment 2;Orientation;1
2;120;120;0;1.0905378999887;1;13;3;Blonde et al. (2023);Experiment 2;Orientation;1
2;31;25;-6;1.16548219998367;1;89;4;Blonde et al. (2023);Experiment 2;Orientation;1
2;20;17;-3;0.831528400070965;1;11;5;Blonde et al. (2023);Experiment 2;Orientation;1
2;33;31;-2;1.84877939999569;1;-13;6;Blonde et al. (2023);Experiment 2;Orientation;1
2;169;169;0;1.86498740001116;1;44;7;Blonde et al. (2023);Experiment 2;Orientation;1
2;137;146;9;0.982069400022738;1;32;8;Blonde et al. (2023);Experiment 2;Orientation;1
2;49;52;3;1.31424810003955;1;88;9;Blonde et al. (2023);Experiment 2;Orientation;1
2;93;112;19;1.2398075000383;1;-44;10;Blonde et al. (2023);Experiment 2;Orientation;1
2;1;178;-3;2.27353210002184;1;-88;11;Blonde et al. (2023);Experiment 2;Orientation;1
2;59;55;-4;2.09044149995316;1;-58;12;Blonde et al. (2023);Experiment 2;Orientation;1
2;165;166;1;1.49924749997444;1;74;13;Blonde et al. (2023);Experiment 2;Orientation;1
2;170;169;-1;1.2309275000589;1;-5;14;Blonde et al. (2023);Experiment 2;Orientation;1
2;115;128;13;1.17244689993095;1;55;15;Blonde et al. (2023);Experiment 2;Orientation;1
2;17;5;-12;1.70606879994739;1;-82;16;Blonde et al. (2023);Experiment 2;Orientation;1
2;167;136;-31;1.1823392000515;1;30;17;Blonde et al. (2023);Experiment 2;Orientation;1
2;25;20;-5;2.28178870002739;1;-38;18;Blonde et al. (2023);Experiment 2;Orientation;1
2;29;39;10;0.981113900081255;1;-4;19;Blonde et al. (2023);Experiment 2;Orientation;1
2;142;147;5;1.21592109999619;1;67;20;Blonde et al. (2023);Experiment 2;Orientation;1
2;6;8;2;0.98204159992747;1;-44;21;Blonde et al. (2023);Experiment 2;Orientation;1
2;148;156;8;0.898877599975094;1;38;22;Blonde et al. (2023);Experiment 2;Orientation;1
2;90;101;11;1.4738323999336;1;58;23;Blonde et al. (2023);Experiment 2;Orientation;1
2;141;138;-3;0.956215800018981;1;-51;24;Blonde et al. (2023);Experiment 2;Orientation;1
2;67;62;-5;1.93193940003403;1;74;25;Blonde et al. (2023);Experiment 2;Orientation;1
2;6;10;4;1.56545690004714;1;61;26;Blonde et al. (2023);Experiment 2;Orientation;1
2;147;170;23;2.50783760007471;1;39;27;Blonde et al. (2023);Experiment 2;Orientation;1
2;128;152;24;1.88084439991508;1;19;28;Blonde et al. (2023);Experiment 2;Orientation;1
2;81;109;28;1.62318160000723;1;47;29;Blonde et al. (2023);Experiment 2;Orientation;1
2;139;139;0;2.22368039994035;1;-58;30;Blonde et al. (2023);Experiment 2;Orientation;1
2;66;70;4;2.36525230004918;1;73;31;Blonde et al. (2023);Experiment 2;Orientation;1
2;158;165;7;1.19766369997524;1;88;32;Blonde et al. (2023);Experiment 2;Orientation;1
2;7;8;1;1.36549990007188;1;-29;33;Blonde et al. (2023);Experiment 2;Orientation;1
2;171;167;-4;1.43902809999418;1;16;34;Blonde et al. (2023);Experiment 2;Orientation;1
2;115;112;-3;1.13112919998821;1;56;35;Blonde et al. (2023);Experiment 2;Orientation;1
2;72;67;-5;1.24842040007934;1;43;36;Blonde et al. (2023);Experiment 2;Orientation;1
2;33;23;-10;1.18190119997598;1;39;37;Blonde et al. (2023);Experiment 2;Orientation;1
2;44;58;14;1.38062910002191;1;-11;38;Blonde et al. (2023);Experiment 2;Orientation;1
2;148;151;3;0.915395900025032;1;76;39;Blonde et al. (2023);Experiment 2;Orientation;1
2;83;113;30;1.81664239999373;1;65;40;Blonde et al. (2023);Experiment 2;Orientation;1
2;5;10;5;0.607161800027825;1;78;41;Blonde et al. (2023);Experiment 2;Orientation;1
2;2;7;5;1.31472490006126;1;3;42;Blonde et al. (2023);Experiment 2;Orientation;1
2;43;45;2;2.3487407999346;1;-41;43;Blonde et al. (2023);Experiment 2;Orientation;1
2;90;123;33;1.93230590003077;1;-47;44;Blonde et al. (2023);Experiment 2;Orientation;1
2;63;58;-5;2.09820790006779;1;27;45;Blonde et al. (2023);Experiment 2;Orientation;1
2;47;53;6;3.4735930999741;1;16;46;Blonde et al. (2023);Experiment 2;Orientation;1
2;76;68;-8;2.1907311999239;1;-29;47;Blonde et al. (2023);Experiment 2;Orientation;1
2;66;69;3;2.87242329993751;1;10;48;Blonde et al. (2023);Experiment 2;Orientation;1
2;85;61;-24;2.22316170006525;1;-19;49;Blonde et al. (2023);Experiment 2;Orientation;1
2;131;133;2;3.67376789997797;1;-46;50;Blonde et al. (2023);Experiment 2;Orientation;1
2;158;151;-7;2.45579359994736;1;-27;51;Blonde et al. (2023);Experiment 2;Orientation;1
2;61;36;-25;3.17362490005326;1;-83;52;Blonde et al. (2023);Experiment 2;Orientation;1
2;76;59;-17;1.89863980002701;1;-15;53;Blonde et al. (2023);Experiment 2;Orientation;1
2;33;24;-9;2.57382649998181;1;43;54;Blonde et al. (2023);Experiment 2;Orientation;1
2;52;38;-14;1.74865780002438;1;-19;55;Blonde et al. (2023);Experiment 2;Orientation;1
2;132;136;4;2.28919929999392;1;-80;56;Blonde et al. (2023);Experiment 2;Orientation;1
2;98;107;9;1.92375119996723;1;34;57;Blonde et al. (2023);Experiment 2;Orientation;1
2;116;113;-3;1.98149349994492;1;-18;58;Blonde et al. (2023);Experiment 2;Orientation;1
2;75;54;-21;2.04167159995995;1;41;59;Blonde et al. (2023);Experiment 2;Orientation;1
2;108;121;13;2.48229369998444;1;-33;60;Blonde et al. (2023);Experiment 2;Orientation;1
2;42;44;2;2.09874479996506;1;66;61;Blonde et al. (2023);Experiment 2;Orientation;1
2;145;140;-5;2.02388170000631;1;77;62;Blonde et al. (2023);Experiment 2;Orientation;1
2;5;6;1;1.59056939999573;1;-40;63;Blonde et al. (2023);Experiment 2;Orientation;1
2;134;173;39;1.55661460000556;1;51;64;Blonde et al. (2023);Experiment 2;Orientation;1
2;112;114;2;1.28226550004911;1;22;65;Blonde et al. (2023);Experiment 2;Orientation;1
2;34;27;-7;0.982085999916308;1;78;66;Blonde et al. (2023);Experiment 2;Orientation;1
2;3;179;-4;1.28987139998935;1;31;67;Blonde et al. (2023);Experiment 2;Orientation;1
2;82;77;-5;1.9143713999074;1;-79;68;Blonde et al. (2023);Experiment 2;Orientation;1
2;133;137;4;1.15722579997964;1;-51;69;Blonde et al. (2023);Experiment 2;Orientation;1
2;98;111;13;1.35795600002166;1;35;70;Blonde et al. (2023);Experiment 2;Orientation;1
2;26;15;-11;0.990422099945135;3;66;141;Blonde et al. (2023);Experiment 2;Orientation;1
2;48;40;-8;1.63933010003529;3;-22;142;Blonde et al. (2023);Experiment 2;Orientation;1
2;49;35;-14;0.698658799985424;3;-1;143;Blonde et al. (2023);Experiment 2;Orientation;1
2;169;168;-1;1.25722759997007;3;60;144;Blonde et al. (2023);Experiment 2;Orientation;1
2;65;55;-10;1.0905805999646;3;-76;145;Blonde et al. (2023);Experiment 2;Orientation;1
2;114;130;16;1.24870520003606;3;-49;146;Blonde et al. (2023);Experiment 2;Orientation;1
2;92;111;19;0.923776399926282;3;22;147;Blonde et al. (2023);Experiment 2;Orientation;1
2;31;31;0;1.61541500000749;3;61;148;Blonde et al. (2023);Experiment 2;Orientation;1
2;105;105;0;1.31464599992614;3;-74;149;Blonde et al. (2023);Experiment 2;Orientation;1
2;170;162;-8;1.30711619998328;3;-65;150;Blonde et al. (2023);Experiment 2;Orientation;1
2;158;160;2;1.41452500002924;3;12;151;Blonde et al. (2023);Experiment 2;Orientation;1
2;56;57;1;1.10718789999373;3;-78;152;Blonde et al. (2023);Experiment 2;Orientation;1
2;168;158;-10;0.907378699979745;3;68;153;Blonde et al. (2023);Experiment 2;Orientation;1
2;106;126;20;0.640661400044337;3;62;154;Blonde et al. (2023);Experiment 2;Orientation;1
2;126;125;-1;1.00706099998206;3;-20;155;Blonde et al. (2023);Experiment 2;Orientation;1
2;149;159;10;1.2569574000081;3;-23;156;Blonde et al. (2023);Experiment 2;Orientation;1
2;131;154;23;1.88192459999118;3;18;157;Blonde et al. (2023);Experiment 2;Orientation;1
2;41;154;-67;1.2656867998885;3;90;158;Blonde et al. (2023);Experiment 2;Orientation;1
2;80;67;-13;1.10706740000751;3;-39;159;Blonde et al. (2023);Experiment 2;Orientation;1
2;161;160;-1;0.940406999900006;3;-81;160;Blonde et al. (2023);Experiment 2;Orientation;1
2;141;155;14;0.898727799998596;3;20;161;Blonde et al. (2023);Experiment 2;Orientation;1
2;22;19;-3;1.29842159990221;3;-61;162;Blonde et al. (2023);Experiment 2;Orientation;1
2;116;75;-41;3.24870310002007;3;86;163;Blonde et al. (2023);Experiment 2;Orientation;1
2;27;17;-10;0.94047530007083;3;89;164;Blonde et al. (2023);Experiment 2;Orientation;1
2;172;172;0;1.51512340002228;3;35;165;Blonde et al. (2023);Experiment 2;Orientation;1
2;125;156;31;1.57381660002284;3;47;166;Blonde et al. (2023);Experiment 2;Orientation;1
2;102;130;28;2.09781449998263;3;23;167;Blonde et al. (2023);Experiment 2;Orientation;1
2;164;162;-2;0.980953800026327;3;-62;168;Blonde et al. (2023);Experiment 2;Orientation;1
2;88;67;-21;1.88144070003182;3;76;169;Blonde et al. (2023);Experiment 2;Orientation;1
2;13;3;-10;0.856814699945971;3;75;170;Blonde et al. (2023);Experiment 2;Orientation;1
2;98;94;-4;1.90628250001464;3;-85;171;Blonde et al. (2023);Experiment 2;Orientation;1
2;178;176;-2;1.39801090001129;3;-80;172;Blonde et al. (2023);Experiment 2;Orientation;1
2;56;54;-2;0.831004400039092;3;-58;173;Blonde et al. (2023);Experiment 2;Orientation;1
2;162;167;5;1.44886040000711;3;74;174;Blonde et al. (2023);Experiment 2;Orientation;1
2;145;152;7;1.16556550003588;3;17;175;Blonde et al. (2023);Experiment 2;Orientation;1
2;150;142;-8;1.26564460003283;3;-5;176;Blonde et al. (2023);Experiment 2;Orientation;1
2;129;135;6;1.13234830007423;3;21;177;Blonde et al. (2023);Experiment 2;Orientation;1
2;167;170;3;0.873585699941032;3;-38;178;Blonde et al. (2023);Experiment 2;Orientation;1
2;154;146;-8;1.38976900000125;3;13;179;Blonde et al. (2023);Experiment 2;Orientation;1
2;149;161;12;1.23225679993629;3;5;180;Blonde et al. (2023);Experiment 2;Orientation;1
2;128;155;27;1.01550870004576;3;21;181;Blonde et al. (2023);Experiment 2;Orientation;1
2;113;119;6;0.940312899998389;3;15;182;Blonde et al. (2023);Experiment 2;Orientation;1
2;3;5;2;1.04782430001069;3;-70;183;Blonde et al. (2023);Experiment 2;Orientation;1
2;79;65;-14;1.34741699998267;3;-76;184;Blonde et al. (2023);Experiment 2;Orientation;1
2;49;38;-11;0.957202300080098;3;30;185;Blonde et al. (2023);Experiment 2;Orientation;1
2;129;133;4;1.48942459991667;3;-80;186;Blonde et al. (2023);Experiment 2;Orientation;1
2;177;4;7;1.20719659992028;3;-48;187;Blonde et al. (2023);Experiment 2;Orientation;1
2;64;66;2;1.08115580002777;3;-67;188;Blonde et al. (2023);Experiment 2;Orientation;1
2;111;119;8;0.890478200046346;3;-47;189;Blonde et al. (2023);Experiment 2;Orientation;1
2;153;163;10;1.33223860000726;3;-42;190;Blonde et al. (2023);Experiment 2;Orientation;1
2;128;148;20;0.807283500093035;3;25;191;Blonde et al. (2023);Experiment 2;Orientation;1
2;177;8;11;1.39056400000118;3;-49;192;Blonde et al. (2023);Experiment 2;Orientation;1
2;22;14;-8;0.9071686998941;3;-25;193;Blonde et al. (2023);Experiment 2;Orientation;1
2;8;6;-2;1.12385770003311;3;14;194;Blonde et al. (2023);Experiment 2;Orientation;1
2;171;171;0;1.08219540002756;3;17;195;Blonde et al. (2023);Experiment 2;Orientation;1
2;130;139;9;0.890686099999584;3;41;196;Blonde et al. (2023);Experiment 2;Orientation;1
2;74;63;-11;0.748724299948663;3;56;197;Blonde et al. (2023);Experiment 2;Orientation;1
2;133;60;-73;0.539909399929456;3;-59;198;Blonde et al. (2023);Experiment 2;Orientation;1
2;2;3;1;3.17361229995731;3;-49;199;Blonde et al. (2023);Experiment 2;Orientation;1
2;48;54;6;0.922743999981321;3;-46;200;Blonde et al. (2023);Experiment 2;Orientation;1
2;57;43;-14;0.923832700005732;3;-9;201;Blonde et al. (2023);Experiment 2;Orientation;1
2;168;164;-4;1.02371480001602;3;69;202;Blonde et al. (2023);Experiment 2;Orientation;1
2;118;145;27;1.03937409992795;3;50;203;Blonde et al. (2023);Experiment 2;Orientation;1
2;174;166;-8;0.86549220001325;3;-56;204;Blonde et al. (2023);Experiment 2;Orientation;1
2;91;104;13;1.20716619992163;3;83;205;Blonde et al. (2023);Experiment 2;Orientation;1
2;55;52;-3;1.18922399997246;3;36;206;Blonde et al. (2023);Experiment 2;Orientation;1
2;133;144;11;0.915486900019459;3;-78;207;Blonde et al. (2023);Experiment 2;Orientation;1
2;126;141;15;1.38917089998722;3;7;208;Blonde et al. (2023);Experiment 2;Orientation;1
2;19;11;-8;1.94013489992358;3;-73;209;Blonde et al. (2023);Experiment 2;Orientation;1
2;161;14;33;1.13131620001514;3;38;210;Blonde et al. (2023);Experiment 2;Orientation;1
3;6;11;5;1.42392569989897;2;-62;71;Blonde et al. (2023);Experiment 2;Orientation;1
3;65;52;-13;1.731172000058;2;-59;72;Blonde et al. (2023);Experiment 2;Orientation;1
3;54;53;-1;1.48104900005274;2;11;73;Blonde et al. (2023);Experiment 2;Orientation;1
3;177;166;-11;1.7488096000161;2;57;74;Blonde et al. (2023);Experiment 2;Orientation;1
3;26;24;-2;1.94860320002772;2;-29;75;Blonde et al. (2023);Experiment 2;Orientation;1
3;116;138;22;2.06534179998562;2;-90;76;Blonde et al. (2023);Experiment 2;Orientation;1
3;90;90;0;1.25711660005618;2;26;77;Blonde et al. (2023);Experiment 2;Orientation;1
3;51;70;19;1.20635270001367;2;39;78;Blonde et al. (2023);Experiment 2;Orientation;1
3;12;175;-17;2.49028710008133;2;39;79;Blonde et al. (2023);Experiment 2;Orientation;1
3;168;167;-1;1.31408310006373;2;24;80;Blonde et al. (2023);Experiment 2;Orientation;1
3;50;47;-3;1.18993760005105;2;-62;81;Blonde et al. (2023);Experiment 2;Orientation;1
3;90;86;-4;1.10730999999214;2;-40;82;Blonde et al. (2023);Experiment 2;Orientation;1
3;70;83;13;2.38207819999661;2;20;83;Blonde et al. (2023);Experiment 2;Orientation;1
3;156;137;-19;1.54058969998732;2;-86;84;Blonde et al. (2023);Experiment 2;Orientation;1
3;21;34;13;1.18082180002239;2;-45;85;Blonde et al. (2023);Experiment 2;Orientation;1
3;66;63;-3;1.06552899989765;2;-45;86;Blonde et al. (2023);Experiment 2;Orientation;1
3;38;30;-8;1.49816630000714;2;28;87;Blonde et al. (2023);Experiment 2;Orientation;1
3;22;26;4;1.9405028000474;2;16;88;Blonde et al. (2023);Experiment 2;Orientation;1
3;50;41;-9;2.4311757000396;2;-28;89;Blonde et al. (2023);Experiment 2;Orientation;1
3;3;177;-6;2.12282659998164;2;47;90;Blonde et al. (2023);Experiment 2;Orientation;1
3;85;82;-3;2.15611129999161;2;-82;91;Blonde et al. (2023);Experiment 2;Orientation;1
3;138;137;-1;1.33957020007074;2;-53;92;Blonde et al. (2023);Experiment 2;Orientation;1
3;43;45;2;1.74882659991272;2;-85;93;Blonde et al. (2023);Experiment 2;Orientation;1
3;87;80;-7;1.77278040000238;2;-44;94;Blonde et al. (2023);Experiment 2;Orientation;1
3;18;13;-5;2.24859169998672;2;69;95;Blonde et al. (2023);Experiment 2;Orientation;1
3;51;62;11;3.87352189992089;2;-33;96;Blonde et al. (2023);Experiment 2;Orientation;1
3;44;31;-13;1.2642420999473;2;7;97;Blonde et al. (2023);Experiment 2;Orientation;1
3;68;71;3;1.50709299999289;2;-24;98;Blonde et al. (2023);Experiment 2;Orientation;1
3;119;125;6;1.72265050001442;2;-51;99;Blonde et al. (2023);Experiment 2;Orientation;1
3;36;24;-12;1.17387540009804;2;83;100;Blonde et al. (2023);Experiment 2;Orientation;1
3;121;126;5;2.62252740003169;2;-85;101;Blonde et al. (2023);Experiment 2;Orientation;1
3;175;11;16;1.97334800008684;2;-54;102;Blonde et al. (2023);Experiment 2;Orientation;1
3;118;121;3;1.51440719992388;2;57;103;Blonde et al. (2023);Experiment 2;Orientation;1
3;136;137;1;1.2724903000053;2;-18;104;Blonde et al. (2023);Experiment 2;Orientation;1
3;29;22;-7;0.939253899967298;2;-73;105;Blonde et al. (2023);Experiment 2;Orientation;1
3;170;154;-16;1.37253799999598;2;39;106;Blonde et al. (2023);Experiment 2;Orientation;1
3;97;107;10;1.29889119998552;2;73;107;Blonde et al. (2023);Experiment 2;Orientation;1
3;127;110;-17;1.47247379994951;2;-30;108;Blonde et al. (2023);Experiment 2;Orientation;1
3;80;67;-13;2.59869050001726;2;47;109;Blonde et al. (2023);Experiment 2;Orientation;1
3;178;165;-13;1.20732189994305;2;82;110;Blonde et al. (2023);Experiment 2;Orientation;1
3;106;116;10;1.49798769992776;2;72;111;Blonde et al. (2023);Experiment 2;Orientation;1
3;85;84;-1;0.623867999995127;2;21;112;Blonde et al. (2023);Experiment 2;Orientation;1
3;110;138;28;1.13126739999279;2;-25;113;Blonde et al. (2023);Experiment 2;Orientation;1
3;98;88;-10;2.78088109998498;2;12;114;Blonde et al. (2023);Experiment 2;Orientation;1
3;87;87;0;1.58201919996645;2;11;115;Blonde et al. (2023);Experiment 2;Orientation;1
3;144;145;1;1.12374240008648;2;-57;116;Blonde et al. (2023);Experiment 2;Orientation;1
3;140;158;18;1.87276579998434;2;4;117;Blonde et al. (2023);Experiment 2;Orientation;1
3;121;130;9;1.09874619997572;2;19;118;Blonde et al. (2023);Experiment 2;Orientation;1
3;1;25;24;2.38183889992069;2;-60;119;Blonde et al. (2023);Experiment 2;Orientation;1
3;86;77;-9;2.2897683000192;2;-85;120;Blonde et al. (2023);Experiment 2;Orientation;1
3;159;70;-89;1.44063450000249;2;-73;121;Blonde et al. (2023);Experiment 2;Orientation;1
3;61;66;5;1.64046669995878;2;-82;122;Blonde et al. (2023);Experiment 2;Orientation;1
3;154;50;76;2.2394348999951;2;87;123;Blonde et al. (2023);Experiment 2;Orientation;1
3;163;154;-9;1.27256390010007;2;-9;124;Blonde et al. (2023);Experiment 2;Orientation;1
3;159;146;-13;1.67371530004311;2;4;125;Blonde et al. (2023);Experiment 2;Orientation;1
3;6;13;7;1.47247469995636;2;-27;126;Blonde et al. (2023);Experiment 2;Orientation;1
3;44;52;8;1.15710130007938;2;-38;127;Blonde et al. (2023);Experiment 2;Orientation;1
3;80;76;-4;1.92298010003287;2;-36;128;Blonde et al. (2023);Experiment 2;Orientation;1
3;165;149;-16;3.54865359992255;2;-85;129;Blonde et al. (2023);Experiment 2;Orientation;1
3;29;26;-3;1.53942459996324;2;-44;130;Blonde et al. (2023);Experiment 2;Orientation;1
3;57;56;-1;2.24756659998093;2;-28;131;Blonde et al. (2023);Experiment 2;Orientation;1
3;63;62;-1;2.8485904999543;2;-6;132;Blonde et al. (2023);Experiment 2;Orientation;1
3;132;120;-12;2.94769350008573;2;-69;133;Blonde et al. (2023);Experiment 2;Orientation;1
3;99;126;27;1.5227101999335;2;33;134;Blonde et al. (2023);Experiment 2;Orientation;1
3;34;24;-10;1.31482960004359;2;65;135;Blonde et al. (2023);Experiment 2;Orientation;1
3;140;140;0;1.66469150001649;2;74;136;Blonde et al. (2023);Experiment 2;Orientation;1
3;173;168;-5;1.09767629997805;2;-33;137;Blonde et al. (2023);Experiment 2;Orientation;1
3;102;117;15;1.7562384000048;2;71;138;Blonde et al. (2023);Experiment 2;Orientation;1
3;148;151;3;1.20725019997917;2;-46;139;Blonde et al. (2023);Experiment 2;Orientation;1
3;85;76;-9;1.2237005000934;2;63;140;Blonde et al. (2023);Experiment 2;Orientation;1
3;32;21;-11;0.573480700026266;4;54;211;Blonde et al. (2023);Experiment 2;Orientation;1
3;101;111;10;0.624797999975272;4;-69;212;Blonde et al. (2023);Experiment 2;Orientation;1
3;93;77;-16;2.19937399995979;4;8;213;Blonde et al. (2023);Experiment 2;Orientation;1
3;11;8;-3;1.02537829999346;4;82;214;Blonde et al. (2023);Experiment 2;Orientation;1
3;165;154;-11;0.957633799989708;4;26;215;Blonde et al. (2023);Experiment 2;Orientation;1
3;7;11;4;1.03892920003273;4;-22;216;Blonde et al. (2023);Experiment 2;Orientation;1
3;99;96;-3;2.28115799999796;4;88;217;Blonde et al. (2023);Experiment 2;Orientation;1
3;39;62;23;2.78057370008901;4;60;218;Blonde et al. (2023);Experiment 2;Orientation;1
3;4;172;-12;1.06553919997532;4;35;219;Blonde et al. (2023);Experiment 2;Orientation;1
3;149;151;2;0.932420499972068;4;35;220;Blonde et al. (2023);Experiment 2;Orientation;1
3;165;155;-10;1.73947779997252;4;-16;221;Blonde et al. (2023);Experiment 2;Orientation;1
3;179;167;-12;1.22394289996009;4;-14;222;Blonde et al. (2023);Experiment 2;Orientation;1
3;141;139;-2;1.44045859994367;4;38;223;Blonde et al. (2023);Experiment 2;Orientation;1
3;58;45;-13;1.62379179999698;4;83;224;Blonde et al. (2023);Experiment 2;Orientation;1
3;74;70;-4;1.19888699997682;4;-16;225;Blonde et al. (2023);Experiment 2;Orientation;1
3;62;61;-1;1.11553529999219;4;12;226;Blonde et al. (2023);Experiment 2;Orientation;1
3;69;80;11;1.68103269999847;4;-7;227;Blonde et al. (2023);Experiment 2;Orientation;1
3;165;162;-3;2.09052249998786;4;84;228;Blonde et al. (2023);Experiment 2;Orientation;1
3;97;120;23;1.015429400024;4;68;229;Blonde et al. (2023);Experiment 2;Orientation;1
3;149;135;-14;1.94869439990725;4;-52;230;Blonde et al. (2023);Experiment 2;Orientation;1
3;17;17;0;2.207104699919;4;-48;231;Blonde et al. (2023);Experiment 2;Orientation;1
3;48;41;-7;1.42367689998355;4;-31;232;Blonde et al. (2023);Experiment 2;Orientation;1
3;41;39;-2;1.64055020001251;4;7;233;Blonde et al. (2023);Experiment 2;Orientation;1
3;151;140;-11;2.17265199997928;4;70;234;Blonde et al. (2023);Experiment 2;Orientation;1
3;1;4;3;1.80703369993716;4;-30;235;Blonde et al. (2023);Experiment 2;Orientation;1
3;133;153;20;3.38132079993375;4;48;236;Blonde et al. (2023);Experiment 2;Orientation;1
3;17;22;5;1.68212869996205;4;-64;237;Blonde et al. (2023);Experiment 2;Orientation;1
3;97;112;15;2.3157654000679;4;-80;238;Blonde et al. (2023);Experiment 2;Orientation;1
3;20;24;4;2.56444230000488;4;77;239;Blonde et al. (2023);Experiment 2;Orientation;1
3;83;58;-25;1.77233780000824;4;-63;240;Blonde et al. (2023);Experiment 2;Orientation;1
3;155;137;-18;2.02395280008204;4;-72;241;Blonde et al. (2023);Experiment 2;Orientation;1
3;64;56;-8;1.67386650003027;4;-89;242;Blonde et al. (2023);Experiment 2;Orientation;1
3;55;55;0;1.7728780999314;4;9;243;Blonde et al. (2023);Experiment 2;Orientation;1
3;81;73;-8;1.84049870003946;4;-26;244;Blonde et al. (2023);Experiment 2;Orientation;1
3;95;87;-8;1.41546209994704;4;-14;245;Blonde et al. (2023);Experiment 2;Orientation;1
3;69;76;7;4.62330650002696;4;26;246;Blonde et al. (2023);Experiment 2;Orientation;1
3;161;57;76;2.04878329997882;4;88;247;Blonde et al. (2023);Experiment 2;Orientation;1
3;122;139;17;1.70715499995276;4;39;248;Blonde et al. (2023);Experiment 2;Orientation;1
3;111;134;23;1.99043889995664;4;11;249;Blonde et al. (2023);Experiment 2;Orientation;1
3;90;90;0;1.51510479999706;4;21;250;Blonde et al. (2023);Experiment 2;Orientation;1
3;20;18;-2;1.64051339996513;4;70;251;Blonde et al. (2023);Experiment 2;Orientation;1
3;17;22;5;1.98223550000694;4;3;252;Blonde et al. (2023);Experiment 2;Orientation;1
3;173;20;27;1.71553709998261;4;24;253;Blonde et al. (2023);Experiment 2;Orientation;1
3;160;141;-19;1.79872730001807;4;13;254;Blonde et al. (2023);Experiment 2;Orientation;1
3;122;130;8;2.40608730004169;4;38;255;Blonde et al. (2023);Experiment 2;Orientation;1
3;160;146;-14;1.36545209994074;4;-38;256;Blonde et al. (2023);Experiment 2;Orientation;1
3;14;30;16;1.73229750001337;4;-34;257;Blonde et al. (2023);Experiment 2;Orientation;1
3;100;142;42;2.22286580002401;4;-86;258;Blonde et al. (2023);Experiment 2;Orientation;1
3;125;132;7;1.03167050005868;4;-25;259;Blonde et al. (2023);Experiment 2;Orientation;1
3;68;74;6;1.09881920006592;4;57;260;Blonde et al. (2023);Experiment 2;Orientation;1
3;155;165;10;1.83240790001582;4;-87;261;Blonde et al. (2023);Experiment 2;Orientation;1
3;61;78;17;1.23957720003091;4;-86;262;Blonde et al. (2023);Experiment 2;Orientation;1
3;134;145;11;1.46466709999368;4;-73;263;Blonde et al. (2023);Experiment 2;Orientation;1
3;41;47;6;1.96551070001442;4;-87;264;Blonde et al. (2023);Experiment 2;Orientation;1
3;27;3;-24;1.70721729996148;4;14;265;Blonde et al. (2023);Experiment 2;Orientation;1
3;115;10;75;3.3391968999058;4;-88;266;Blonde et al. (2023);Experiment 2;Orientation;1
3;57;40;-17;1.98152010003105;4;58;267;Blonde et al. (2023);Experiment 2;Orientation;1
3;172;161;-11;1.6894948000554;4;65;268;Blonde et al. (2023);Experiment 2;Orientation;1
3;154;152;-2;0.907376900082454;4;18;269;Blonde et al. (2023);Experiment 2;Orientation;1
3;23;23;0;2.12260979996063;4;-49;270;Blonde et al. (2023);Experiment 2;Orientation;1
3;75;71;-4;1.30702780000865;4;-52;271;Blonde et al. (2023);Experiment 2;Orientation;1
3;26;30;4;2.02301250002347;4;49;272;Blonde et al. (2023);Experiment 2;Orientation;1
3;172;149;-23;1.8738083000062;4;34;273;Blonde et al. (2023);Experiment 2;Orientation;1
3;70;58;-12;2.16532040003221;4;-78;274;Blonde et al. (2023);Experiment 2;Orientation;1
3;130;134;4;1.75581030000467;4;-60;275;Blonde et al. (2023);Experiment 2;Orientation;1
3;92;91;-1;1.5062013999559;4;38;276;Blonde et al. (2023);Experiment 2;Orientation;1
3;168;146;-22;1.44789529999252;4;-76;277;Blonde et al. (2023);Experiment 2;Orientation;1
3;142;132;-10;1.68211870000232;4;26;278;Blonde et al. (2023);Experiment 2;Orientation;1
3;95;86;-9;1.47287749999668;4;47;279;Blonde et al. (2023);Experiment 2;Orientation;1
3;163;137;-26;1.93948499998078;4;-68;280;Blonde et al. (2023);Experiment 2;Orientation;1
4;157;153;-4;1.34761699999217;1;NaN;1;Blonde et al. (2023);Experiment 2;Orientation;1
4;129;130;1;1.44883200002369;1;28;2;Blonde et al. (2023);Experiment 2;Orientation;1
4;22;9;-13;1.8499615000328;1;-73;3;Blonde et al. (2023);Experiment 2;Orientation;1
4;79;81;2;5.51415840000845;1;-57;4;Blonde et al. (2023);Experiment 2;Orientation;1
4;134;146;12;1.21554830006789;1;-55;5;Blonde et al. (2023);Experiment 2;Orientation;1
4;139;140;1;1.67335549998097;1;-5;6;Blonde et al. (2023);Experiment 2;Orientation;1
4;84;66;-18;1.69037139997818;1;55;7;Blonde et al. (2023);Experiment 2;Orientation;1
4;39;29;-10;2.447649299982;1;45;8;Blonde et al. (2023);Experiment 2;Orientation;1
4;29;35;6;1.35659000009764;1;10;9;Blonde et al. (2023);Experiment 2;Orientation;1
4;59;61;2;2.02367649995722;1;-30;10;Blonde et al. (2023);Experiment 2;Orientation;1
4;117;119;2;1.31553869997151;1;-58;11;Blonde et al. (2023);Experiment 2;Orientation;1
4;130;131;1;1.55725149996579;1;-13;12;Blonde et al. (2023);Experiment 2;Orientation;1
4;87;70;-17;0.815067699993961;1;43;13;Blonde et al. (2023);Experiment 2;Orientation;1
4;65;68;3;1.57381189998705;1;22;14;Blonde et al. (2023);Experiment 2;Orientation;1
4;129;120;-9;1.33113060006872;1;-64;15;Blonde et al. (2023);Experiment 2;Orientation;1
4;166;154;-12;1.67370899999514;1;-37;16;Blonde et al. (2023);Experiment 2;Orientation;1
4;79;24;-55;1.3646525000222;1;87;17;Blonde et al. (2023);Experiment 2;Orientation;1
4;82;77;-5;1.37367650005035;1;-3;18;Blonde et al. (2023);Experiment 2;Orientation;1
4;107;111;4;1.60703970002942;1;-25;19;Blonde et al. (2023);Experiment 2;Orientation;1
4;126;121;-5;1.18225589999929;1;-19;20;Blonde et al. (2023);Experiment 2;Orientation;1
4;91;107;16;1.28221690002829;1;35;21;Blonde et al. (2023);Experiment 2;Orientation;1
4;145;127;-18;1.08160479995422;1;-54;22;Blonde et al. (2023);Experiment 2;Orientation;1
4;62;49;-13;1.18228599999566;1;83;23;Blonde et al. (2023);Experiment 2;Orientation;1
4;32;36;4;1.30673229997046;1;30;24;Blonde et al. (2023);Experiment 2;Orientation;1
4;171;148;-23;1.40743000002112;1;41;25;Blonde et al. (2023);Experiment 2;Orientation;1
4;83;76;-7;1.08215480006766;1;88;26;Blonde et al. (2023);Experiment 2;Orientation;1
4;121;114;-7;1.20725380000658;1;-38;27;Blonde et al. (2023);Experiment 2;Orientation;1
4;121;108;-13;1.04897910007276;1;0;28;Blonde et al. (2023);Experiment 2;Orientation;1
4;124;118;-6;2.02297940000426;1;-3;29;Blonde et al. (2023);Experiment 2;Orientation;1
4;95;99;4;1.63213849999011;1;29;30;Blonde et al. (2023);Experiment 2;Orientation;1
4;124;102;-22;1.72480399999768;1;-29;31;Blonde et al. (2023);Experiment 2;Orientation;1
4;77;71;-6;1.63092550006695;1;47;32;Blonde et al. (2023);Experiment 2;Orientation;1
4;14;10;-4;1.49039719998837;1;63;33;Blonde et al. (2023);Experiment 2;Orientation;1
4;86;79;-7;1.80632350000087;1;-72;34;Blonde et al. (2023);Experiment 2;Orientation;1
4;1;6;5;1.75710309995338;1;85;35;Blonde et al. (2023);Experiment 2;Orientation;1
4;165;171;6;1.3071616999805;1;16;36;Blonde et al. (2023);Experiment 2;Orientation;1
4;35;19;-16;1.09043250000104;1;-50;37;Blonde et al. (2023);Experiment 2;Orientation;1
4;47;39;-8;2.02293800003827;1;-12;38;Blonde et al. (2023);Experiment 2;Orientation;1
4;68;69;1;1.37389200006146;1;-21;39;Blonde et al. (2023);Experiment 2;Orientation;1
4;118;131;13;1.6154428999871;1;-50;40;Blonde et al. (2023);Experiment 2;Orientation;1
4;144;141;-3;2.1058830000693;1;-26;41;Blonde et al. (2023);Experiment 2;Orientation;1
4;6;8;2;1.8560800999403;1;-42;42;Blonde et al. (2023);Experiment 2;Orientation;1
4;78;80;2;1.62241729989182;1;-72;43;Blonde et al. (2023);Experiment 2;Orientation;1
4;55;69;14;1.70739180000965;1;23;44;Blonde et al. (2023);Experiment 2;Orientation;1
4;125;137;12;0.765553600038402;1;-70;45;Blonde et al. (2023);Experiment 2;Orientation;1
4;14;35;21;1.57370050007012;1;-69;46;Blonde et al. (2023);Experiment 2;Orientation;1
4;17;33;16;1.59872330003418;1;-3;47;Blonde et al. (2023);Experiment 2;Orientation;1
4;145;156;11;1.0905946000712;1;52;48;Blonde et al. (2023);Experiment 2;Orientation;1
4;35;41;6;0.706483600079082;1;-70;49;Blonde et al. (2023);Experiment 2;Orientation;1
4;98;100;2;1.92346830002498;1;-63;50;Blonde et al. (2023);Experiment 2;Orientation;1
4;177;164;-13;1.04774629999883;1;-79;51;Blonde et al. (2023);Experiment 2;Orientation;1
4;22;18;-4;0.982229300076142;1;-25;52;Blonde et al. (2023);Experiment 2;Orientation;1
4;78;52;-26;1.03094660001807;1;-56;53;Blonde et al. (2023);Experiment 2;Orientation;1
4;141;152;11;1.47383919998538;1;-63;54;Blonde et al. (2023);Experiment 2;Orientation;1
4;51;48;-3;1.33207730005961;1;90;55;Blonde et al. (2023);Experiment 2;Orientation;1
4;136;132;-4;1.31495380005799;1;-85;56;Blonde et al. (2023);Experiment 2;Orientation;1
4;46;48;2;1.14889429998584;1;90;57;Blonde et al. (2023);Experiment 2;Orientation;1
4;127;134;7;1.0066432999447;1;-81;58;Blonde et al. (2023);Experiment 2;Orientation;1
4;102;105;3;1.2572679000441;1;25;59;Blonde et al. (2023);Experiment 2;Orientation;1
4;13;29;16;0.790032900054939;1;89;60;Blonde et al. (2023);Experiment 2;Orientation;1
4;143;131;-12;1.60614990000613;1;50;61;Blonde et al. (2023);Experiment 2;Orientation;1
4;135;142;7;0.914645100012422;1;8;62;Blonde et al. (2023);Experiment 2;Orientation;1
4;29;25;-4;1.21423329995014;1;-74;63;Blonde et al. (2023);Experiment 2;Orientation;1
4;156;149;-7;1.18066000007093;1;53;64;Blonde et al. (2023);Experiment 2;Orientation;1
4;9;18;9;0.948336799978279;1;-33;65;Blonde et al. (2023);Experiment 2;Orientation;1
4;170;164;-6;1.18082939996384;1;19;66;Blonde et al. (2023);Experiment 2;Orientation;1
4;152;121;-31;2.07288430002518;1;18;67;Blonde et al. (2023);Experiment 2;Orientation;1
4;154;146;-8;1.48199820006266;1;-2;68;Blonde et al. (2023);Experiment 2;Orientation;1
4;67;66;-1;0.955978800076991;1;87;69;Blonde et al. (2023);Experiment 2;Orientation;1
4;30;25;-5;0.865506100002676;1;37;70;Blonde et al. (2023);Experiment 2;Orientation;1
4;28;21;-7;1.29794760001823;3;58;141;Blonde et al. (2023);Experiment 2;Orientation;1
4;105;110;5;1.1071250999812;3;-77;142;Blonde et al. (2023);Experiment 2;Orientation;1
4;75;55;-20;0.965605500037782;3;30;143;Blonde et al. (2023);Experiment 2;Orientation;1
4;82;81;-1;0.890057199983858;3;-7;144;Blonde et al. (2023);Experiment 2;Orientation;1
4;99;100;1;0.789068099926226;3;-17;145;Blonde et al. (2023);Experiment 2;Orientation;1
4;11;17;6;1.05717329995241;3;88;146;Blonde et al. (2023);Experiment 2;Orientation;1
4;141;154;13;1.0242736999644;3;50;147;Blonde et al. (2023);Experiment 2;Orientation;1
4;8;17;9;1.32393230008893;3;-47;148;Blonde et al. (2023);Experiment 2;Orientation;1
4;18;22;4;1.59861500002444;3;-10;149;Blonde et al. (2023);Experiment 2;Orientation;1
4;115;117;2;1.21553889999632;3;83;150;Blonde et al. (2023);Experiment 2;Orientation;1
4;152;154;2;1.10708169999998;3;-37;151;Blonde et al. (2023);Experiment 2;Orientation;1
4;10;5;-5;0.682360999984667;3;-38;152;Blonde et al. (2023);Experiment 2;Orientation;1
4;135;148;13;1.03328859992325;3;55;153;Blonde et al. (2023);Experiment 2;Orientation;1
4;68;66;-2;1.09867700003088;3;67;154;Blonde et al. (2023);Experiment 2;Orientation;1
4;43;30;-13;1.55709999997634;3;25;155;Blonde et al. (2023);Experiment 2;Orientation;1
4;37;22;-15;1.15715750004165;3;6;156;Blonde et al. (2023);Experiment 2;Orientation;1
4;139;128;-11;0.98212279996369;3;78;157;Blonde et al. (2023);Experiment 2;Orientation;1
4;112;114;2;1.40713940002024;3;27;158;Blonde et al. (2023);Experiment 2;Orientation;1
4;155;130;-25;0.940555099979974;3;-43;159;Blonde et al. (2023);Experiment 2;Orientation;1
4;127;126;-1;0.532191199949011;3;28;160;Blonde et al. (2023);Experiment 2;Orientation;1
4;131;134;3;0.540341500076465;3;-4;161;Blonde et al. (2023);Experiment 2;Orientation;1
4;89;96;7;1.75715960003436;3;42;162;Blonde et al. (2023);Experiment 2;Orientation;1
4;26;41;15;1.29869159997907;3;63;163;Blonde et al. (2023);Experiment 2;Orientation;1
4;52;54;2;1.0063431999879;3;-26;164;Blonde et al. (2023);Experiment 2;Orientation;1
4;68;65;-3;1.0072186999023;3;-16;165;Blonde et al. (2023);Experiment 2;Orientation;1
4;2;11;9;1.41559290001169;3;66;166;Blonde et al. (2023);Experiment 2;Orientation;1
4;178;173;-5;0.90661900001578;3;4;167;Blonde et al. (2023);Experiment 2;Orientation;1
4;179;176;-3;1.40653459995519;3;-1;168;Blonde et al. (2023);Experiment 2;Orientation;1
4;97;99;2;1.23907160002273;3;82;169;Blonde et al. (2023);Experiment 2;Orientation;1
4;174;172;-2;1.24868730001617;3;-77;170;Blonde et al. (2023);Experiment 2;Orientation;1
4;163;168;5;0.930901500047185;3;11;171;Blonde et al. (2023);Experiment 2;Orientation;1
4;118;110;-8;1.20677910000086;3;45;172;Blonde et al. (2023);Experiment 2;Orientation;1
4;7;13;6;1.21540470002219;3;-69;173;Blonde et al. (2023);Experiment 2;Orientation;1
4;74;58;-16;1.33214549999684;3;-67;174;Blonde et al. (2023);Experiment 2;Orientation;1
4;147;141;-6;0.990582900005393;3;-73;175;Blonde et al. (2023);Experiment 2;Orientation;1
4;133;142;9;0.957290599937551;3;14;176;Blonde et al. (2023);Experiment 2;Orientation;1
4;120;139;19;0.782219600048847;3;13;177;Blonde et al. (2023);Experiment 2;Orientation;1
4;53;61;8;1.75588970002718;3;67;178;Blonde et al. (2023);Experiment 2;Orientation;1
4;46;50;4;1.02359790005721;3;7;179;Blonde et al. (2023);Experiment 2;Orientation;1
4;100;117;17;1.14883280009963;3;-54;180;Blonde et al. (2023);Experiment 2;Orientation;1
4;82;79;-3;0.773383400053717;3;18;181;Blonde et al. (2023);Experiment 2;Orientation;1
4;35;27;-8;1.38982689997647;3;47;182;Blonde et al. (2023);Experiment 2;Orientation;1
4;36;33;-3;0.649048399995081;3;-1;183;Blonde et al. (2023);Experiment 2;Orientation;1
4;26;29;3;0.965404300019145;3;10;184;Blonde et al. (2023);Experiment 2;Orientation;1
4;45;33;-12;1.17307419993449;3;-19;185;Blonde et al. (2023);Experiment 2;Orientation;1
4;103;119;16;1.00726310000755;3;-58;186;Blonde et al. (2023);Experiment 2;Orientation;1
4;102;105;3;1.04888060002122;3;1;187;Blonde et al. (2023);Experiment 2;Orientation;1
4;54;65;11;1.45703299995512;3;48;188;Blonde et al. (2023);Experiment 2;Orientation;1
4;15;22;7;0.831387499929406;3;39;189;Blonde et al. (2023);Experiment 2;Orientation;1
4;55;69;14;1.36572879995219;3;-40;190;Blonde et al. (2023);Experiment 2;Orientation;1
4;126;128;2;0.940359400003217;3;-71;191;Blonde et al. (2023);Experiment 2;Orientation;1
4;50;54;4;0.940378700033762;3;76;192;Blonde et al. (2023);Experiment 2;Orientation;1
4;133;124;-9;1.02393529994879;3;-83;193;Blonde et al. (2023);Experiment 2;Orientation;1
4;142;129;-13;1.09767500008456;3;-9;194;Blonde et al. (2023);Experiment 2;Orientation;1
4;2;166;-16;1.15623930003494;3;-40;195;Blonde et al. (2023);Experiment 2;Orientation;1
4;29;28;-1;0.932143099955283;3;-27;196;Blonde et al. (2023);Experiment 2;Orientation;1
4;94;106;12;0.972630299977027;3;-65;197;Blonde et al. (2023);Experiment 2;Orientation;1
4;161;158;-3;1.4482122999616;3;-67;198;Blonde et al. (2023);Experiment 2;Orientation;1
4;131;108;-23;1.06501719995867;3;30;199;Blonde et al. (2023);Experiment 2;Orientation;1
4;95;99;4;0.980914000072517;3;36;200;Blonde et al. (2023);Experiment 2;Orientation;1
4;47;51;4;0.865469399956055;3;48;201;Blonde et al. (2023);Experiment 2;Orientation;1
4;111;106;-5;1.19805799995083;3;-64;202;Blonde et al. (2023);Experiment 2;Orientation;1
4;16;30;14;0.890481700072996;3;-85;203;Blonde et al. (2023);Experiment 2;Orientation;1
4;165;165;0;0.832242500036955;3;31;204;Blonde et al. (2023);Experiment 2;Orientation;1
4;145;154;9;0.940594000043347;3;20;205;Blonde et al. (2023);Experiment 2;Orientation;1
4;66;58;-8;1.19055010005832;3;79;206;Blonde et al. (2023);Experiment 2;Orientation;1
4;55;73;18;1.39718790003099;3;11;207;Blonde et al. (2023);Experiment 2;Orientation;1
4;93;98;5;0.914383399998769;3;-38;208;Blonde et al. (2023);Experiment 2;Orientation;1
4;150;129;-21;0.757076099980623;3;-57;209;Blonde et al. (2023);Experiment 2;Orientation;1
4;58;98;40;2.22365479997825;3;-88;210;Blonde et al. (2023);Experiment 2;Orientation;1
5;82;72;-10;0.540631399955601;2;-6;71;Blonde et al. (2023);Experiment 2;Orientation;1
5;111;76;-35;0.657233300036751;2;-29;72;Blonde et al. (2023);Experiment 2;Orientation;1
5;54;69;15;0.807166300015524;2;57;73;Blonde et al. (2023);Experiment 2;Orientation;1
5;26;37;11;0.932027800008655;2;28;74;Blonde et al. (2023);Experiment 2;Orientation;1
5;100;112;12;0.931107599986717;2;-74;75;Blonde et al. (2023);Experiment 2;Orientation;1
5;123;120;-3;0.598957700072788;2;-23;76;Blonde et al. (2023);Experiment 2;Orientation;1
5;96;102;6;1.41554650000762;2;27;77;Blonde et al. (2023);Experiment 2;Orientation;1
5;63;80;17;1.23229349998292;2;33;78;Blonde et al. (2023);Experiment 2;Orientation;1
5;48;70;22;0.755065499921329;2;15;79;Blonde et al. (2023);Experiment 2;Orientation;1
5;51;50;-1;0.956612300011329;2;-3;80;Blonde et al. (2023);Experiment 2;Orientation;1
5;154;143;-11;0.707261100062169;2;77;81;Blonde et al. (2023);Experiment 2;Orientation;1
5;147;141;-6;0.699007699964568;2;7;82;Blonde et al. (2023);Experiment 2;Orientation;1
5;138;141;3;1.3821111000143;2;9;83;Blonde et al. (2023);Experiment 2;Orientation;1
5;113;125;12;1.20711600000504;2;25;84;Blonde et al. (2023);Experiment 2;Orientation;1
5;173;176;3;0.723942500073463;2;-60;85;Blonde et al. (2023);Experiment 2;Orientation;1
5;73;68;-5;0.673035099986009;2;-80;86;Blonde et al. (2023);Experiment 2;Orientation;1
5;148;143;-5;0.607316400040872;2;-75;87;Blonde et al. (2023);Experiment 2;Orientation;1
5;62;29;-33;0.573361900052987;2;86;88;Blonde et al. (2023);Experiment 2;Orientation;1
5;175;0;5;0.623839100007899;2;67;89;Blonde et al. (2023);Experiment 2;Orientation;1
5;54;38;-16;0.80717290006578;2;-59;90;Blonde et al. (2023);Experiment 2;Orientation;1
5;57;67;10;1.02991170005407;2;-3;91;Blonde et al. (2023);Experiment 2;Orientation;1
5;39;24;-15;0.87302830000408;2;18;92;Blonde et al. (2023);Experiment 2;Orientation;1
5;40;36;-4;0.656583899981342;2;-1;93;Blonde et al. (2023);Experiment 2;Orientation;1
5;154;160;6;0.898808000027202;2;66;94;Blonde et al. (2023);Experiment 2;Orientation;1
5;10;19;9;0.682240800000727;2;-36;95;Blonde et al. (2023);Experiment 2;Orientation;1
5;83;55;-28;0.890608299989253;2;-73;96;Blonde et al. (2023);Experiment 2;Orientation;1
5;142;133;-9;1.39746140001807;2;-59;97;Blonde et al. (2023);Experiment 2;Orientation;1
5;21;22;1;1.06542760005686;2;-59;98;Blonde et al. (2023);Experiment 2;Orientation;1
5;168;152;-16;0.698641099967062;2;33;99;Blonde et al. (2023);Experiment 2;Orientation;1
5;54;46;-8;1.18093260005116;2;-66;100;Blonde et al. (2023);Experiment 2;Orientation;1
5;94;96;2;1.01563779998105;2;-40;101;Blonde et al. (2023);Experiment 2;Orientation;1
5;71;70;-1;1.17380669992417;2;23;102;Blonde et al. (2023);Experiment 2;Orientation;1
5;160;175;15;0.790365600027144;2;-89;103;Blonde et al. (2023);Experiment 2;Orientation;1
5;53;19;-34;1.23195429996122;2;-73;104;Blonde et al. (2023);Experiment 2;Orientation;1
5;101;112;11;1.28222659998573;2;-48;105;Blonde et al. (2023);Experiment 2;Orientation;1
5;64;58;-6;0.773858899949118;2;37;106;Blonde et al. (2023);Experiment 2;Orientation;1
5;110;123;13;0.815417299978435;2;-46;107;Blonde et al. (2023);Experiment 2;Orientation;1
5;34;35;1;0.956274900003336;2;76;108;Blonde et al. (2023);Experiment 2;Orientation;1
5;134;148;14;1.07239560002927;2;80;109;Blonde et al. (2023);Experiment 2;Orientation;1
5;120;122;2;0.789625000092201;2;14;110;Blonde et al. (2023);Experiment 2;Orientation;1
5;144;145;1;0.864564500050619;2;-24;111;Blonde et al. (2023);Experiment 2;Orientation;1
5;74;59;-15;0.773885900038294;2;70;112;Blonde et al. (2023);Experiment 2;Orientation;1
5;111;117;6;0.890555999940261;2;-37;113;Blonde et al. (2023);Experiment 2;Orientation;1
5;19;17;-2;0.773045800044201;2;-88;114;Blonde et al. (2023);Experiment 2;Orientation;1
5;152;156;4;0.865070599946193;2;47;115;Blonde et al. (2023);Experiment 2;Orientation;1
5;112;56;-56;0.882300800061785;2;40;116;Blonde et al. (2023);Experiment 2;Orientation;1
5;56;68;12;1.24788859998807;2;56;117;Blonde et al. (2023);Experiment 2;Orientation;1
5;71;105;34;1.24901410005987;2;-15;118;Blonde et al. (2023);Experiment 2;Orientation;1
5;85;68;-17;0.832213400048204;2;-14;119;Blonde et al. (2023);Experiment 2;Orientation;1
5;31;29;-2;0.882209799950942;2;54;120;Blonde et al. (2023);Experiment 2;Orientation;1
5;41;79;38;3.70631889998913;2;-10;121;Blonde et al. (2023);Experiment 2;Orientation;1
5;164;155;-9;1.00629090005532;2;57;122;Blonde et al. (2023);Experiment 2;Orientation;1
5;100;107;7;0.59054320002906;2;64;123;Blonde et al. (2023);Experiment 2;Orientation;1
5;3;177;-6;1.00606040004641;2;-83;124;Blonde et al. (2023);Experiment 2;Orientation;1
5;52;47;-5;0.615481200045906;2;-49;125;Blonde et al. (2023);Experiment 2;Orientation;1
5;163;161;-2;0.822751099942252;2;69;126;Blonde et al. (2023);Experiment 2;Orientation;1
5;88;79;-9;0.714983799960464;2;75;127;Blonde et al. (2023);Experiment 2;Orientation;1
5;115;115;0;1.70621199999005;2;-27;128;Blonde et al. (2023);Experiment 2;Orientation;1
5;158;151;-7;0.865384600008838;2;-43;129;Blonde et al. (2023);Experiment 2;Orientation;1
5;179;10;11;0.80715359991882;2;-21;130;Blonde et al. (2023);Experiment 2;Orientation;1
5;115;112;-3;1.08161329990253;2;64;131;Blonde et al. (2023);Experiment 2;Orientation;1
5;96;104;8;1.23942040000111;2;19;132;Blonde et al. (2023);Experiment 2;Orientation;1
5;102;109;7;1.24815210001543;2;-6;133;Blonde et al. (2023);Experiment 2;Orientation;1
5;9;12;3;1.68219109997153;2;-87;134;Blonde et al. (2023);Experiment 2;Orientation;1
5;4;1;-3;0.86548939999193;2;5;135;Blonde et al. (2023);Experiment 2;Orientation;1
5;145;162;17;0.565602599992417;2;39;136;Blonde et al. (2023);Experiment 2;Orientation;1
5;73;178;-75;1.74047880002763;2;72;137;Blonde et al. (2023);Experiment 2;Orientation;1
5;56;55;-1;1.08936690003611;2;17;138;Blonde et al. (2023);Experiment 2;Orientation;1
5;91;85;-6;0.832128699985333;2;-35;139;Blonde et al. (2023);Experiment 2;Orientation;1
5;0;1;1;0.748963499907404;2;-89;140;Blonde et al. (2023);Experiment 2;Orientation;1
5;8;26;18;0.881461999961175;4;56;211;Blonde et al. (2023);Experiment 2;Orientation;1
5;171;168;-3;0.656010400038213;4;17;212;Blonde et al. (2023);Experiment 2;Orientation;1
5;108;107;-1;0.790013900026679;4;63;213;Blonde et al. (2023);Experiment 2;Orientation;1
5;160;163;3;1.0407155000139;4;-52;214;Blonde et al. (2023);Experiment 2;Orientation;1
5;42;83;41;1.05718490004074;4;-62;215;Blonde et al. (2023);Experiment 2;Orientation;1
5;148;162;14;1.35700530000031;4;74;216;Blonde et al. (2023);Experiment 2;Orientation;1
5;123;109;-14;0.656838899943978;4;25;217;Blonde et al. (2023);Experiment 2;Orientation;1
5;122;155;33;0.432177099981345;4;1;218;Blonde et al. (2023);Experiment 2;Orientation;1
5;29;31;2;0.665451199980453;4;-87;219;Blonde et al. (2023);Experiment 2;Orientation;1
5;169;170;1;1.21534749993589;4;40;220;Blonde et al. (2023);Experiment 2;Orientation;1
5;31;27;-4;0.598748399992473;4;-42;221;Blonde et al. (2023);Experiment 2;Orientation;1
5;61;43;-18;0.732167499954812;4;-30;222;Blonde et al. (2023);Experiment 2;Orientation;1
5;61;52;-9;0.948029499966651;4;0;223;Blonde et al. (2023);Experiment 2;Orientation;1
5;77;71;-6;2.08019280002918;4;-16;224;Blonde et al. (2023);Experiment 2;Orientation;1
5;41;48;7;1.43092840001918;4;36;225;Blonde et al. (2023);Experiment 2;Orientation;1
5;46;30;-16;1.08219870005269;4;-5;226;Blonde et al. (2023);Experiment 2;Orientation;1
5;149;138;-11;1.38236250006594;4;77;227;Blonde et al. (2023);Experiment 2;Orientation;1
5;54;53;-1;1.54879879998043;4;-85;228;Blonde et al. (2023);Experiment 2;Orientation;1
5;125;101;-24;1.43218749994412;4;-71;229;Blonde et al. (2023);Experiment 2;Orientation;1
5;32;32;0;1.14773590001278;4;-87;230;Blonde et al. (2023);Experiment 2;Orientation;1
5;179;4;5;0.748722500051372;4;33;231;Blonde et al. (2023);Experiment 2;Orientation;1
5;103;108;5;1.04057670000475;4;76;232;Blonde et al. (2023);Experiment 2;Orientation;1
5;97;115;18;0.705994400079362;4;6;233;Blonde et al. (2023);Experiment 2;Orientation;1
5;131;107;-24;0.615507400012575;4;-34;234;Blonde et al. (2023);Experiment 2;Orientation;1
5;145;144;-1;0.690273600048386;4;-14;235;Blonde et al. (2023);Experiment 2;Orientation;1
5;86;83;-3;0.872821500059217;4;59;236;Blonde et al. (2023);Experiment 2;Orientation;1
5;124;96;-28;1.72360120003577;4;-38;237;Blonde et al. (2023);Experiment 2;Orientation;1
5;18;11;-7;0.698791899951175;4;-74;238;Blonde et al. (2023);Experiment 2;Orientation;1
5;179;3;4;0.865506000001915;4;19;239;Blonde et al. (2023);Experiment 2;Orientation;1
5;86;90;4;0.790429899934679;4;-87;240;Blonde et al. (2023);Experiment 2;Orientation;1
5;3;167;-16;1.31542190001346;4;83;241;Blonde et al. (2023);Experiment 2;Orientation;1
5;62;63;1;0.841654299991205;4;-59;242;Blonde et al. (2023);Experiment 2;Orientation;1
5;95;86;-9;0.665425900020637;4;-33;243;Blonde et al. (2023);Experiment 2;Orientation;1
5;149;158;9;0.923061299952678;4;-54;244;Blonde et al. (2023);Experiment 2;Orientation;1
5;28;21;-7;1.21542100002989;4;-59;245;Blonde et al. (2023);Experiment 2;Orientation;1
5;2;4;2;0.998784399940632;4;26;246;Blonde et al. (2023);Experiment 2;Orientation;1
5;162;153;-9;0.57295790000353;4;20;247;Blonde et al. (2023);Experiment 2;Orientation;1
5;120;131;11;0.598752299905755;4;42;248;Blonde et al. (2023);Experiment 2;Orientation;1
5;8;12;4;1.37389509996865;4;-68;249;Blonde et al. (2023);Experiment 2;Orientation;1
5;26;17;-9;0.682347900001332;4;-18;250;Blonde et al. (2023);Experiment 2;Orientation;1
5;93;90;-3;0.60745200002566;4;-67;251;Blonde et al. (2023);Experiment 2;Orientation;1
5;114;127;13;1.35743259999435;4;-21;252;Blonde et al. (2023);Experiment 2;Orientation;1
5;115;124;9;1.28126020007767;4;-1;253;Blonde et al. (2023);Experiment 2;Orientation;1
5;170;170;0;0.432027800008655;4;-55;254;Blonde et al. (2023);Experiment 2;Orientation;1
5;144;153;9;0.348612500005402;4;26;255;Blonde et al. (2023);Experiment 2;Orientation;1
5;74;59;-15;0.48209029994905;4;70;256;Blonde et al. (2023);Experiment 2;Orientation;1
5;24;14;-10;0.914543200051412;4;50;257;Blonde et al. (2023);Experiment 2;Orientation;1
5;3;0;-3;0.989558400004171;4;21;258;Blonde et al. (2023);Experiment 2;Orientation;1
5;76;78;2;0.848407099954784;4;-73;259;Blonde et al. (2023);Experiment 2;Orientation;1
5;137;145;8;0.839444600045681;4;-61;260;Blonde et al. (2023);Experiment 2;Orientation;1
5;134;138;4;0.905638099997304;4;3;261;Blonde et al. (2023);Experiment 2;Orientation;1
5;39;29;-10;1.26466500002425;4;-85;262;Blonde et al. (2023);Experiment 2;Orientation;1
5;109;116;7;1.18929899996147;4;-70;263;Blonde et al. (2023);Experiment 2;Orientation;1
5;148;149;1;1.01556540001184;4;-39;264;Blonde et al. (2023);Experiment 2;Orientation;1
5;45;60;15;1.08217429998331;4;-77;265;Blonde et al. (2023);Experiment 2;Orientation;1
5;57;55;-2;0.707166499923915;4;-12;266;Blonde et al. (2023);Experiment 2;Orientation;1
5;168;110;-58;1.5065431999974;4;69;267;Blonde et al. (2023);Experiment 2;Orientation;1
5;146;141;-5;0.973881800076924;4;22;268;Blonde et al. (2023);Experiment 2;Orientation;1
5;162;149;-13;0.906055400031619;4;-16;269;Blonde et al. (2023);Experiment 2;Orientation;1
5;127;133;6;0.698760799947195;4;35;270;Blonde et al. (2023);Experiment 2;Orientation;1
5;107;105;-2;0.706659100018442;4;20;271;Blonde et al. (2023);Experiment 2;Orientation;1
5;133;138;5;0.890471699996851;4;-26;272;Blonde et al. (2023);Experiment 2;Orientation;1
5;27;149;-58;0.815626700059511;4;-74;273;Blonde et al. (2023);Experiment 2;Orientation;1
5;98;105;7;0.657225600094534;4;-71;274;Blonde et al. (2023);Experiment 2;Orientation;1
5;13;24;11;1.44753899995703;4;85;275;Blonde et al. (2023);Experiment 2;Orientation;1
5;126;135;9;0.748920000041835;4;67;276;Blonde et al. (2023);Experiment 2;Orientation;1
5;19;43;24;0.38231050001923;4;-73;277;Blonde et al. (2023);Experiment 2;Orientation;1
5;9;10;1;0.965538899996318;4;10;278;Blonde et al. (2023);Experiment 2;Orientation;1
5;43;48;5;0.965664600022137;4;-34;279;Blonde et al. (2023);Experiment 2;Orientation;1
5;107;119;12;0.781204099999741;4;-64;280;Blonde et al. (2023);Experiment 2;Orientation;1
6;112;110;-2;0.723606599960476;1;NaN;1;Blonde et al. (2023);Experiment 2;Orientation;1
6;153;140;-13;1.25699629995506;1;-41;2;Blonde et al. (2023);Experiment 2;Orientation;1
6;139;132;-7;0.732231699978001;1;14;3;Blonde et al. (2023);Experiment 2;Orientation;1
6;73;85;12;0.806185900000855;1;66;4;Blonde et al. (2023);Experiment 2;Orientation;1
6;116;100;-16;1.59788930008654;1;-43;5;Blonde et al. (2023);Experiment 2;Orientation;1
6;106;114;8;1.73057939996943;1;10;6;Blonde et al. (2023);Experiment 2;Orientation;1
6;116;112;-4;2.19801819999702;1;-10;7;Blonde et al. (2023);Experiment 2;Orientation;1
6;32;33;1;0.782210599980317;1;84;8;Blonde et al. (2023);Experiment 2;Orientation;1
6;128;115;-13;1.03141519997735;1;84;9;Blonde et al. (2023);Experiment 2;Orientation;1
6;3;0;-3;1.21503840002697;1;-55;10;Blonde et al. (2023);Experiment 2;Orientation;1
6;71;69;-2;0.914414900005795;1;-68;11;Blonde et al. (2023);Experiment 2;Orientation;1
6;119;117;-2;1.59789789991919;1;-48;12;Blonde et al. (2023);Experiment 2;Orientation;1
6;24;33;9;0.949012900004163;1;-85;13;Blonde et al. (2023);Experiment 2;Orientation;1
6;140;133;-7;1.20607219997328;1;64;14;Blonde et al. (2023);Experiment 2;Orientation;1
6;97;99;2;0.673055900027975;1;43;15;Blonde et al. (2023);Experiment 2;Orientation;1
6;126;126;0;1.17393269995227;1;-29;16;Blonde et al. (2023);Experiment 2;Orientation;1
6;10;26;16;0.82399120007176;1;-64;17;Blonde et al. (2023);Experiment 2;Orientation;1
6;161;178;17;1.37367739994079;1;29;18;Blonde et al. (2023);Experiment 2;Orientation;1
6;51;44;-7;1.98116229998413;1;-70;19;Blonde et al. (2023);Experiment 2;Orientation;1
6;140;134;-6;0.782284400076605;1;-89;20;Blonde et al. (2023);Experiment 2;Orientation;1
6;61;56;-5;1.09063089999836;1;79;21;Blonde et al. (2023);Experiment 2;Orientation;1
6;69;71;2;1.52365300001111;1;-8;22;Blonde et al. (2023);Experiment 2;Orientation;1
6;173;171;-2;1.08962740004063;1;76;23;Blonde et al. (2023);Experiment 2;Orientation;1
6;9;177;-12;1.01570360001642;1;-16;24;Blonde et al. (2023);Experiment 2;Orientation;1
6;123;58;-65;0.848972599953413;1;66;25;Blonde et al. (2023);Experiment 2;Orientation;1
6;105;103;-2;1.5319658999797;1;18;26;Blonde et al. (2023);Experiment 2;Orientation;1
6;160;157;-3;0.755844800034538;1;-55;27;Blonde et al. (2023);Experiment 2;Orientation;1
6;52;62;10;1.3981348000234;1;-72;28;Blonde et al. (2023);Experiment 2;Orientation;1
6;18;17;-1;1.40718650002964;1;34;29;Blonde et al. (2023);Experiment 2;Orientation;1
6;168;169;1;0.881005299976096;1;30;30;Blonde et al. (2023);Experiment 2;Orientation;1
6;89;81;-8;0.939672800013795;1;79;31;Blonde et al. (2023);Experiment 2;Orientation;1
6;86;95;9;0.598833200056106;1;3;32;Blonde et al. (2023);Experiment 2;Orientation;1
6;166;178;12;1.17396079993341;1;-80;33;Blonde et al. (2023);Experiment 2;Orientation;1
6;161;158;-3;1.14818499993999;1;5;34;Blonde et al. (2023);Experiment 2;Orientation;1
6;179;176;-3;1.79891180002596;1;-18;35;Blonde et al. (2023);Experiment 2;Orientation;1
6;137;144;7;0.682269099983387;1;42;36;Blonde et al. (2023);Experiment 2;Orientation;1
6;179;7;8;1.27402310003527;1;-42;37;Blonde et al. (2023);Experiment 2;Orientation;1
6;51;52;1;0.70626720006112;1;-52;38;Blonde et al. (2023);Experiment 2;Orientation;1
6;155;147;-8;1.16543239995372;1;76;39;Blonde et al. (2023);Experiment 2;Orientation;1
6;39;33;-6;1.89864469994791;1;-64;40;Blonde et al. (2023);Experiment 2;Orientation;1
6;119;118;-1;1.53197520005051;1;-80;41;Blonde et al. (2023);Experiment 2;Orientation;1
6;140;127;-13;1.52291159995366;1;-21;42;Blonde et al. (2023);Experiment 2;Orientation;1
6;47;45;-2;3.31432909995783;1;-87;43;Blonde et al. (2023);Experiment 2;Orientation;1
6;41;44;3;0.765524200047366;1;6;44;Blonde et al. (2023);Experiment 2;Orientation;1
6;129;143;14;1.28210710000712;1;-88;45;Blonde et al. (2023);Experiment 2;Orientation;1
6;156;141;-15;3.0153610999696;1;-27;46;Blonde et al. (2023);Experiment 2;Orientation;1
6;145;153;8;1.18220720009413;1;11;47;Blonde et al. (2023);Experiment 2;Orientation;1
6;127;126;-1;1.38192569999956;1;18;48;Blonde et al. (2023);Experiment 2;Orientation;1
6;110;114;4;0.773808499914594;1;17;49;Blonde et al. (2023);Experiment 2;Orientation;1
6;158;153;-5;0.873961500008591;1;-48;50;Blonde et al. (2023);Experiment 2;Orientation;1
6;101;108;7;1.14883830002509;1;57;51;Blonde et al. (2023);Experiment 2;Orientation;1
6;134;9;55;1.6725940000033;1;-33;52;Blonde et al. (2023);Experiment 2;Orientation;1
6;163;165;2;1.14034879999235;1;-29;53;Blonde et al. (2023);Experiment 2;Orientation;1
6;11;10;-1;2.90622140001506;1;-28;54;Blonde et al. (2023);Experiment 2;Orientation;1
6;147;149;2;1.09841320000123;1;44;55;Blonde et al. (2023);Experiment 2;Orientation;1
6;68;60;-8;0.864093499956653;1;79;56;Blonde et al. (2023);Experiment 2;Orientation;1
6;32;37;5;1.24762129993178;1;36;57;Blonde et al. (2023);Experiment 2;Orientation;1
6;12;26;14;0.807221100083552;1;20;58;Blonde et al. (2023);Experiment 2;Orientation;1
6;22;31;9;0.640597700024955;1;-10;59;Blonde et al. (2023);Experiment 2;Orientation;1
6;51;47;-4;0.531737099983729;1;-29;60;Blonde et al. (2023);Experiment 2;Orientation;1
6;151;160;9;0.897331999964081;1;80;61;Blonde et al. (2023);Experiment 2;Orientation;1
6;159;152;-7;1.53910459997132;1;-8;62;Blonde et al. (2023);Experiment 2;Orientation;1
6;61;57;-4;0.739380800048821;1;-82;63;Blonde et al. (2023);Experiment 2;Orientation;1
6;20;44;24;0.848999400041066;1;41;64;Blonde et al. (2023);Experiment 2;Orientation;1
6;26;22;-4;1.43940229993314;1;-6;65;Blonde et al. (2023);Experiment 2;Orientation;1
6;67;73;6;1.2736251000315;1;-41;66;Blonde et al. (2023);Experiment 2;Orientation;1
6;61;67;6;1.22361849993467;1;6;67;Blonde et al. (2023);Experiment 2;Orientation;1
6;159;84;-75;1.03240999998525;1;82;68;Blonde et al. (2023);Experiment 2;Orientation;1
6;100;98;-2;0.873781000031158;1;59;69;Blonde et al. (2023);Experiment 2;Orientation;1
6;131;125;-6;0.623822499997914;1;-31;70;Blonde et al. (2023);Experiment 2;Orientation;1
6;112;115;3;1.21545110002626;3;-11;141;Blonde et al. (2023);Experiment 2;Orientation;1
6;66;69;3;1.12291929998901;3;46;142;Blonde et al. (2023);Experiment 2;Orientation;1
6;115;116;1;1.9477796999272;3;-49;143;Blonde et al. (2023);Experiment 2;Orientation;1
6;37;40;3;1.12397189997137;3;78;144;Blonde et al. (2023);Experiment 2;Orientation;1
6;104;147;43;0.840229999972507;3;-67;145;Blonde et al. (2023);Experiment 2;Orientation;1
6;142;151;9;2.94762629992329;3;-38;146;Blonde et al. (2023);Experiment 2;Orientation;1
6;121;143;22;2.83188630000222;3;21;147;Blonde et al. (2023);Experiment 2;Orientation;1
6;30;44;14;0.757211399963126;3;-89;148;Blonde et al. (2023);Experiment 2;Orientation;1
6;151;146;-5;1.08167280000634;3;59;149;Blonde et al. (2023);Experiment 2;Orientation;1
6;23;20;-3;1.9903789999662;3;-52;150;Blonde et al. (2023);Experiment 2;Orientation;1
6;129;113;-16;1.32390690001193;3;74;151;Blonde et al. (2023);Experiment 2;Orientation;1
6;15;19;4;1.27261920005549;3;-66;152;Blonde et al. (2023);Experiment 2;Orientation;1
6;73;78;5;1.03956399997696;3;-58;153;Blonde et al. (2023);Experiment 2;Orientation;1
6;114;124;10;1.6070827000076;3;-41;154;Blonde et al. (2023);Experiment 2;Orientation;1
6;154;118;-36;0.715683600050397;3;-40;155;Blonde et al. (2023);Experiment 2;Orientation;1
6;62;87;25;10.7811269999947;3;-88;156;Blonde et al. (2023);Experiment 2;Orientation;1
6;5;4;-1;0.722830399987288;3;57;157;Blonde et al. (2023);Experiment 2;Orientation;1
6;3;6;3;1.08087730000261;3;2;158;Blonde et al. (2023);Experiment 2;Orientation;1
6;51;41;-10;0.724151600035839;3;-48;159;Blonde et al. (2023);Experiment 2;Orientation;1
6;97;109;12;2.32267630007118;3;-46;160;Blonde et al. (2023);Experiment 2;Orientation;1
6;43;94;51;2.84740279999096;3;54;161;Blonde et al. (2023);Experiment 2;Orientation;1
6;166;159;-7;1.16455859993584;3;57;162;Blonde et al. (2023);Experiment 2;Orientation;1
6;149;157;8;0.540533800027333;3;17;163;Blonde et al. (2023);Experiment 2;Orientation;1
6;44;47;3;1.36491769994609;3;-75;164;Blonde et al. (2023);Experiment 2;Orientation;1
6;79;89;10;0.807255899999291;3;-35;165;Blonde et al. (2023);Experiment 2;Orientation;1
6;90;82;-8;1.30591660004575;3;-11;166;Blonde et al. (2023);Experiment 2;Orientation;1
6;68;82;14;1.36552230000962;3;22;167;Blonde et al. (2023);Experiment 2;Orientation;1
6;144;148;4;0.998826300026849;3;-76;168;Blonde et al. (2023);Experiment 2;Orientation;1
6;87;85;-2;0.757350599975325;3;57;169;Blonde et al. (2023);Experiment 2;Orientation;1
6;7;5;-2;1.12391739990562;3;80;170;Blonde et al. (2023);Experiment 2;Orientation;1
6;121;128;7;1.56545190000907;3;66;171;Blonde et al. (2023);Experiment 2;Orientation;1
6;51;32;-19;2.79884169995785;3;70;172;Blonde et al. (2023);Experiment 2;Orientation;1
6;65;62;-3;2.06423000001814;3;-14;173;Blonde et al. (2023);Experiment 2;Orientation;1
6;82;77;-5;2.1237717999611;3;-17;174;Blonde et al. (2023);Experiment 2;Orientation;1
6;149;151;2;2.26430839998648;3;-67;175;Blonde et al. (2023);Experiment 2;Orientation;1
6;143;148;5;1.31419929990079;3;6;176;Blonde et al. (2023);Experiment 2;Orientation;1
6;55;61;6;2.41459170007147;3;88;177;Blonde et al. (2023);Experiment 2;Orientation;1
6;70;61;-9;1.4072756000096;3;-15;178;Blonde et al. (2023);Experiment 2;Orientation;1
6;67;73;6;0.974016799940728;3;3;179;Blonde et al. (2023);Experiment 2;Orientation;1
6;139;136;-3;0.623372799949721;3;-72;180;Blonde et al. (2023);Experiment 2;Orientation;1
6;169;160;-9;0.923974800040014;3;-30;181;Blonde et al. (2023);Experiment 2;Orientation;1
6;77;70;-7;1.16470099997241;3;-88;182;Blonde et al. (2023);Experiment 2;Orientation;1
6;94;95;1;0.682486100005917;3;-17;183;Blonde et al. (2023);Experiment 2;Orientation;1
6;39;56;17;0.956421100068837;3;55;184;Blonde et al. (2023);Experiment 2;Orientation;1
6;152;139;-13;0.823531999951228;3;67;185;Blonde et al. (2023);Experiment 2;Orientation;1
6;145;138;-7;1.30719980003778;3;7;186;Blonde et al. (2023);Experiment 2;Orientation;1
6;146;133;-13;1.71557029988617;3;-1;187;Blonde et al. (2023);Experiment 2;Orientation;1
6;139;131;-8;2.2737441000063;3;7;188;Blonde et al. (2023);Experiment 2;Orientation;1
6;146;146;0;0.832497700001113;3;-7;189;Blonde et al. (2023);Experiment 2;Orientation;1
6;120;118;-2;0.964677499956451;3;26;190;Blonde et al. (2023);Experiment 2;Orientation;1
6;113;112;-1;2.07287819997873;3;7;191;Blonde et al. (2023);Experiment 2;Orientation;1
6;154;151;-3;2.47277429990936;3;-41;192;Blonde et al. (2023);Experiment 2;Orientation;1
6;62;71;9;1.65714680007659;3;-88;193;Blonde et al. (2023);Experiment 2;Orientation;1
6;67;73;6;1.68159609998111;3;-5;194;Blonde et al. (2023);Experiment 2;Orientation;1
6;7;3;-4;1.31529400008731;3;60;195;Blonde et al. (2023);Experiment 2;Orientation;1
6;75;78;3;2.4480778001016;3;-68;196;Blonde et al. (2023);Experiment 2;Orientation;1
6;67;65;-2;1.09048470004927;3;8;197;Blonde et al. (2023);Experiment 2;Orientation;1
6;85;114;29;1.71455969999079;3;-18;198;Blonde et al. (2023);Experiment 2;Orientation;1
6;73;63;-10;1.90591960004531;3;12;199;Blonde et al. (2023);Experiment 2;Orientation;1
6;9;177;-12;1.91540429997258;3;64;200;Blonde et al. (2023);Experiment 2;Orientation;1
6;160;171;11;1.13110090000555;3;29;201;Blonde et al. (2023);Experiment 2;Orientation;1
6;118;120;2;0.765557799953967;3;42;202;Blonde et al. (2023);Experiment 2;Orientation;1
6;43;32;-11;0.789512700052001;3;75;203;Blonde et al. (2023);Experiment 2;Orientation;1
6;109;106;-3;0.740545499953441;3;-66;204;Blonde et al. (2023);Experiment 2;Orientation;1
6;34;26;-8;1.38207060005516;3;75;205;Blonde et al. (2023);Experiment 2;Orientation;1
6;145;134;-11;0.598888900014572;3;69;206;Blonde et al. (2023);Experiment 2;Orientation;1
6;174;161;-13;0.505796600016765;3;-29;207;Blonde et al. (2023);Experiment 2;Orientation;1
6;178;163;-15;0.640649200067855;3;-4;208;Blonde et al. (2023);Experiment 2;Orientation;1
6;94;107;13;0.797276700031944;3;84;209;Blonde et al. (2023);Experiment 2;Orientation;1
6;64;82;18;0.573731599957682;3;30;210;Blonde et al. (2023);Experiment 2;Orientation;1
7;118;121;3;1.36426450009458;2;58;71;Blonde et al. (2023);Experiment 2;Orientation;1
7;7;16;9;0.749038600130007;2;-69;72;Blonde et al. (2023);Experiment 2;Orientation;1
7;176;179;3;1.80755160003901;2;11;73;Blonde et al. (2023);Experiment 2;Orientation;1
7;47;48;1;1.82380020013079;2;-51;74;Blonde et al. (2023);Experiment 2;Orientation;1
7;27;17;-10;1.16555009991862;2;20;75;Blonde et al. (2023);Experiment 2;Orientation;1
7;3;7;4;1.79885509982705;2;24;76;Blonde et al. (2023);Experiment 2;Orientation;1
7;83;64;-19;1.81552230007946;2;-80;77;Blonde et al. (2023);Experiment 2;Orientation;1
7;150;164;14;1.61468650004826;2;-67;78;Blonde et al. (2023);Experiment 2;Orientation;1
7;38;151;-67;2.11554469983093;2;-68;79;Blonde et al. (2023);Experiment 2;Orientation;1
7;76;68;-8;1.04050320014358;2;-38;80;Blonde et al. (2023);Experiment 2;Orientation;1
7;158;148;-10;1.37308889999986;2;-82;81;Blonde et al. (2023);Experiment 2;Orientation;1
7;55;38;-17;1.96492890012451;2;-77;82;Blonde et al. (2023);Experiment 2;Orientation;1
7;170;159;-11;2.67375180008821;2;65;83;Blonde et al. (2023);Experiment 2;Orientation;1
7;18;21;3;1.72295730002224;2;-28;84;Blonde et al. (2023);Experiment 2;Orientation;1
7;120;122;2;1.2819403000176;2;78;85;Blonde et al. (2023);Experiment 2;Orientation;1
7;21;13;-8;2.78983340016566;2;-81;86;Blonde et al. (2023);Experiment 2;Orientation;1
7;24;35;11;2.85715509997681;2;-3;87;Blonde et al. (2023);Experiment 2;Orientation;1
7;32;33;1;1.05650630011223;2;-8;88;Blonde et al. (2023);Experiment 2;Orientation;1
7;80;69;-11;1.63945449981838;2;-48;89;Blonde et al. (2023);Experiment 2;Orientation;1
7;70;54;-16;2.82270199991763;2;10;90;Blonde et al. (2023);Experiment 2;Orientation;1
7;158;151;-7;1.83913760003634;2;-88;91;Blonde et al. (2023);Experiment 2;Orientation;1
7;30;29;-1;1.88222860009409;2;-52;92;Blonde et al. (2023);Experiment 2;Orientation;1
7;34;32;-2;1.49721169983968;2;-4;93;Blonde et al. (2023);Experiment 2;Orientation;1
7;12;10;-2;1.02249870006926;2;22;94;Blonde et al. (2023);Experiment 2;Orientation;1
7;174;162;-12;1.76453089993447;2;18;95;Blonde et al. (2023);Experiment 2;Orientation;1
7;53;47;-6;1.40626639989205;2;-59;96;Blonde et al. (2023);Experiment 2;Orientation;1
7;65;53;-12;2.31574770016596;2;-12;97;Blonde et al. (2023);Experiment 2;Orientation;1
7;61;43;-18;1.32284449995495;2;4;98;Blonde et al. (2023);Experiment 2;Orientation;1
7;13;30;17;1.14682919997722;2;48;99;Blonde et al. (2023);Experiment 2;Orientation;1
7;29;30;1;1.7235600000713;2;-16;100;Blonde et al. (2023);Experiment 2;Orientation;1
7;155;151;-4;2.12179399980232;2;54;101;Blonde et al. (2023);Experiment 2;Orientation;1
7;43;41;-2;1.12386159994639;2;-68;102;Blonde et al. (2023);Experiment 2;Orientation;1
7;33;35;2;1.87294939998537;2;10;103;Blonde et al. (2023);Experiment 2;Orientation;1
7;132;129;-3;1.27279669977725;2;81;104;Blonde et al. (2023);Experiment 2;Orientation;1
7;96;103;7;1.16553000011481;2;36;105;Blonde et al. (2023);Experiment 2;Orientation;1
7;2;16;14;2.69882540008985;2;-86;106;Blonde et al. (2023);Experiment 2;Orientation;1
7;123;122;-1;1.56546600000001;2;59;107;Blonde et al. (2023);Experiment 2;Orientation;1
7;108;106;-2;1.34824450011365;2;15;108;Blonde et al. (2023);Experiment 2;Orientation;1
7;37;41;4;1.65662949997932;2;71;109;Blonde et al. (2023);Experiment 2;Orientation;1
7;23;29;6;1.34037719992921;2;14;110;Blonde et al. (2023);Experiment 2;Orientation;1
7;153;154;1;2.42295649996959;2;50;111;Blonde et al. (2023);Experiment 2;Orientation;1
7;39;30;-9;1.42395960004069;2;-66;112;Blonde et al. (2023);Experiment 2;Orientation;1
7;78;66;-12;1.87378969998099;2;-39;113;Blonde et al. (2023);Experiment 2;Orientation;1
7;35;39;4;1.55539079988375;2;43;114;Blonde et al. (2023);Experiment 2;Orientation;1
7;92;105;13;1.80558750010096;2;-57;115;Blonde et al. (2023);Experiment 2;Orientation;1
7;166;155;-11;4.13089660019614;2;-74;116;Blonde et al. (2023);Experiment 2;Orientation;1
7;169;162;-7;1.83226709999144;2;-3;117;Blonde et al. (2023);Experiment 2;Orientation;1
7;153;151;-2;1.13213389995508;2;16;118;Blonde et al. (2023);Experiment 2;Orientation;1
7;171;156;-15;2.34797010011971;2;-18;119;Blonde et al. (2023);Experiment 2;Orientation;1
7;43;51;8;1.97266540001146;2;-52;120;Blonde et al. (2023);Experiment 2;Orientation;1
7;34;37;3;1.22382539999671;2;9;121;Blonde et al. (2023);Experiment 2;Orientation;1
7;149;137;-12;2.58872890006751;2;65;122;Blonde et al. (2023);Experiment 2;Orientation;1
7;73;56;-17;1.76546199992299;2;76;123;Blonde et al. (2023);Experiment 2;Orientation;1
7;73;72;-1;2.43958900007419;2;0;124;Blonde et al. (2023);Experiment 2;Orientation;1
7;34;42;8;1.88958239997737;2;39;125;Blonde et al. (2023);Experiment 2;Orientation;1
7;71;57;-14;2.49745750008151;2;-37;126;Blonde et al. (2023);Experiment 2;Orientation;1
7;32;23;-9;1.39870060002431;2;39;127;Blonde et al. (2023);Experiment 2;Orientation;1
7;39;31;-8;1.86546430015005;2;-7;128;Blonde et al. (2023);Experiment 2;Orientation;1
7;127;127;0;1.11555739981122;2;-88;129;Blonde et al. (2023);Experiment 2;Orientation;1
7;168;165;-3;1.41540249995887;2;-41;130;Blonde et al. (2023);Experiment 2;Orientation;1
7;171;172;1;1.60624560015276;2;-3;131;Blonde et al. (2023);Experiment 2;Orientation;1
7;153;162;9;1.5238564000465;2;18;132;Blonde et al. (2023);Experiment 2;Orientation;1
7;41;39;-2;1.31544229993597;2;-68;133;Blonde et al. (2023);Experiment 2;Orientation;1
7;161;166;5;1.36554909986444;2;60;134;Blonde et al. (2023);Experiment 2;Orientation;1
7;178;5;7;1.49061900004745;2;-17;135;Blonde et al. (2023);Experiment 2;Orientation;1
7;172;172;0;1.85779140004888;2;6;136;Blonde et al. (2023);Experiment 2;Orientation;1
7;119;122;3;1.64056230010465;2;53;137;Blonde et al. (2023);Experiment 2;Orientation;1
7;158;145;-13;1.42393910000101;2;-39;138;Blonde et al. (2023);Experiment 2;Orientation;1
7;105;111;6;1.66539680003189;2;53;139;Blonde et al. (2023);Experiment 2;Orientation;1
7;143;130;-13;1.3071520999074;2;-38;140;Blonde et al. (2023);Experiment 2;Orientation;1
7;25;22;-3;1.47294749994762;4;84;211;Blonde et al. (2023);Experiment 2;Orientation;1
7;89;79;-10;0.898927900008857;4;-64;212;Blonde et al. (2023);Experiment 2;Orientation;1
7;31;45;14;1.5903360999655;4;58;213;Blonde et al. (2023);Experiment 2;Orientation;1
7;177;165;-12;0.957203599857166;4;34;214;Blonde et al. (2023);Experiment 2;Orientation;1
7;7;11;4;1.27325410000049;4;-10;215;Blonde et al. (2023);Experiment 2;Orientation;1
7;152;156;4;1.23996059992351;4;35;216;Blonde et al. (2023);Experiment 2;Orientation;1
7;122;116;-6;1.6903575998731;4;30;217;Blonde et al. (2023);Experiment 2;Orientation;1
7;33;34;1;2.1070016999729;4;89;218;Blonde et al. (2023);Experiment 2;Orientation;1
7;72;59;-13;0.624035299988464;4;-39;219;Blonde et al. (2023);Experiment 2;Orientation;1
7;15;19;4;0.64785429998301;4;57;220;Blonde et al. (2023);Experiment 2;Orientation;1
7;66;51;-15;1.67368920007721;4;-51;221;Blonde et al. (2023);Experiment 2;Orientation;1
7;11;30;19;5.35590020008385;4;55;222;Blonde et al. (2023);Experiment 2;Orientation;1
7;120;126;6;1.86443730001338;4;71;223;Blonde et al. (2023);Experiment 2;Orientation;1
7;154;156;2;1.36547560011968;4;-34;224;Blonde et al. (2023);Experiment 2;Orientation;1
7;63;64;1;1.29042800003663;4;-89;225;Blonde et al. (2023);Experiment 2;Orientation;1
7;109;108;-1;1.49053970002569;4;-46;226;Blonde et al. (2023);Experiment 2;Orientation;1
7;128;125;-3;1.29060279997066;4;-19;227;Blonde et al. (2023);Experiment 2;Orientation;1
7;118;120;2;0.982234499882907;4;10;228;Blonde et al. (2023);Experiment 2;Orientation;1
7;161;172;11;2.17367859999649;4;-43;229;Blonde et al. (2023);Experiment 2;Orientation;1
7;37;33;-4;2.11396919982508;4;-56;230;Blonde et al. (2023);Experiment 2;Orientation;1
7;53;53;0;1.70617759996094;4;-16;231;Blonde et al. (2023);Experiment 2;Orientation;1
7;0;173;-7;1.34787410008721;4;53;232;Blonde et al. (2023);Experiment 2;Orientation;1
7;56;64;8;1.21453140000813;4;-56;233;Blonde et al. (2023);Experiment 2;Orientation;1
7;118;58;-60;0.632159800035879;4;-62;234;Blonde et al. (2023);Experiment 2;Orientation;1
7;54;40;-14;1.79863699991256;4;64;235;Blonde et al. (2023);Experiment 2;Orientation;1
7;9;18;9;0.907180699985474;4;45;236;Blonde et al. (2023);Experiment 2;Orientation;1
7;16;16;0;1.3392717000097;4;-7;237;Blonde et al. (2023);Experiment 2;Orientation;1
7;6;9;3;1.36560630006716;4;10;238;Blonde et al. (2023);Experiment 2;Orientation;1
7;123;127;4;1.83211600012146;4;63;239;Blonde et al. (2023);Experiment 2;Orientation;1
7;37;43;6;1.28222179994918;4;86;240;Blonde et al. (2023);Experiment 2;Orientation;1
7;51;41;-10;1.3320675001014;4;-14;241;Blonde et al. (2023);Experiment 2;Orientation;1
7;136;24;68;2.64891500002705;4;-85;242;Blonde et al. (2023);Experiment 2;Orientation;1
7;77;75;-2;1.26555599994026;4;59;243;Blonde et al. (2023);Experiment 2;Orientation;1
7;37;40;3;0.598982600029558;4;40;244;Blonde et al. (2023);Experiment 2;Orientation;1
7;162;158;-4;2.53944459999911;4;55;245;Blonde et al. (2023);Experiment 2;Orientation;1
7;132;143;11;2.0312473999802;4;30;246;Blonde et al. (2023);Experiment 2;Orientation;1
7;91;79;-12;0.865518900100142;4;41;247;Blonde et al. (2023);Experiment 2;Orientation;1
7;98;99;1;1.69034170010127;4;-7;248;Blonde et al. (2023);Experiment 2;Orientation;1
7;16;27;11;2.73121370002627;4;82;249;Blonde et al. (2023);Experiment 2;Orientation;1
7;42;26;-16;2.34875080012716;4;-26;250;Blonde et al. (2023);Experiment 2;Orientation;1
7;73;53;-20;1.16533910017461;4;-31;251;Blonde et al. (2023);Experiment 2;Orientation;1
7;129;124;-5;1.89882680005394;4;-56;252;Blonde et al. (2023);Experiment 2;Orientation;1
7;36;36;0;1.79046460008249;4;-87;253;Blonde et al. (2023);Experiment 2;Orientation;1
7;106;104;-2;0.990702699869871;4;-70;254;Blonde et al. (2023);Experiment 2;Orientation;1
7;169;166;-3;1.71412500017323;4;-63;255;Blonde et al. (2023);Experiment 2;Orientation;1
7;75;66;-9;1.09874120005406;4;-86;256;Blonde et al. (2023);Experiment 2;Orientation;1
7;121;129;8;1.09867420000955;4;-46;257;Blonde et al. (2023);Experiment 2;Orientation;1
7;62;71;9;1.28926869994029;4;59;258;Blonde et al. (2023);Experiment 2;Orientation;1
7;135;136;1;1.7137898998335;4;-73;259;Blonde et al. (2023);Experiment 2;Orientation;1
7;66;67;1;1.09766720002517;4;69;260;Blonde et al. (2023);Experiment 2;Orientation;1
7;90;75;-15;0.682393600000069;4;-24;261;Blonde et al. (2023);Experiment 2;Orientation;1
7;118;142;24;1.40719509986229;4;-28;262;Blonde et al. (2023);Experiment 2;Orientation;1
7;57;48;-9;1.38129830011167;4;61;263;Blonde et al. (2023);Experiment 2;Orientation;1
7;159;162;3;1.31572670000605;4;78;264;Blonde et al. (2023);Experiment 2;Orientation;1
7;96;99;3;1.03237970010377;4;63;265;Blonde et al. (2023);Experiment 2;Orientation;1
7;167;164;-3;1.01482969988137;4;-71;266;Blonde et al. (2023);Experiment 2;Orientation;1
7;176;172;-4;1.15662980009802;4;-9;267;Blonde et al. (2023);Experiment 2;Orientation;1
7;76;75;-1;1.10722479992546;4;-80;268;Blonde et al. (2023);Experiment 2;Orientation;1
7;14;12;-2;1.44893150008284;4;62;269;Blonde et al. (2023);Experiment 2;Orientation;1
7;102;118;16;1.26535809994675;4;-88;270;Blonde et al. (2023);Experiment 2;Orientation;1
7;96;106;10;1.87360769999214;4;6;271;Blonde et al. (2023);Experiment 2;Orientation;1
7;175;0;5;1.79032639996149;4;-79;272;Blonde et al. (2023);Experiment 2;Orientation;1
7;36;20;-16;1.49826809996739;4;-41;273;Blonde et al. (2023);Experiment 2;Orientation;1
7;163;170;7;1.01405539992265;4;53;274;Blonde et al. (2023);Experiment 2;Orientation;1
7;51;53;2;1.86460600001737;4;-68;275;Blonde et al. (2023);Experiment 2;Orientation;1
7;121;119;-2;1.00618629995733;4;-70;276;Blonde et al. (2023);Experiment 2;Orientation;1
7;130;130;0;1.81552410009317;4;-9;277;Blonde et al. (2023);Experiment 2;Orientation;1
7;157;156;-1;2.18936980003491;4;-27;278;Blonde et al. (2023);Experiment 2;Orientation;1
7;25;17;-8;2.15721020009369;4;-48;279;Blonde et al. (2023);Experiment 2;Orientation;1
7;79;66;-13;1.10729260020889;4;-54;280;Blonde et al. (2023);Experiment 2;Orientation;1
8;72;79;7;2.66448420006782;1;NaN;1;Blonde et al. (2023);Experiment 2;Orientation;1
8;72;128;56;2.06455180002376;1;0;2;Blonde et al. (2023);Experiment 2;Orientation;1
8;65;46;-19;1.18183479993604;1;7;3;Blonde et al. (2023);Experiment 2;Orientation;1
8;11;8;-3;1.34778209985234;1;54;4;Blonde et al. (2023);Experiment 2;Orientation;1
8;43;1;-42;4.6562799999956;1;-32;5;Blonde et al. (2023);Experiment 2;Orientation;1
8;162;28;46;1.70606370014139;1;61;6;Blonde et al. (2023);Experiment 2;Orientation;1
8;151;146;-5;0.556557900039479;1;11;7;Blonde et al. (2023);Experiment 2;Orientation;1
8;71;63;-8;1.95691960002296;1;80;8;Blonde et al. (2023);Experiment 2;Orientation;1
8;58;53;-5;1.51463419990614;1;13;9;Blonde et al. (2023);Experiment 2;Orientation;1
8;125;134;9;2.64745990000665;1;-67;10;Blonde et al. (2023);Experiment 2;Orientation;1
8;149;155;6;0.998361699981615;1;-24;11;Blonde et al. (2023);Experiment 2;Orientation;1
8;161;145;-16;1.9311859998852;1;-12;12;Blonde et al. (2023);Experiment 2;Orientation;1
8;92;91;-1;1.99044229998253;1;69;13;Blonde et al. (2023);Experiment 2;Orientation;1
8;119;126;7;3.18056440004148;1;-27;14;Blonde et al. (2023);Experiment 2;Orientation;1
8;52;25;-27;1.54060589987785;1;67;15;Blonde et al. (2023);Experiment 2;Orientation;1
8;133;130;-3;4.03092129994184;1;-81;16;Blonde et al. (2023);Experiment 2;Orientation;1
8;57;52;-5;1.86531240004115;1;76;17;Blonde et al. (2023);Experiment 2;Orientation;1
8;108;40;-68;1.23220249987207;1;-51;18;Blonde et al. (2023);Experiment 2;Orientation;1
8;99;97;-2;1.13203749991953;1;9;19;Blonde et al. (2023);Experiment 2;Orientation;1
8;63;55;-8;1.74038839992136;1;36;20;Blonde et al. (2023);Experiment 2;Orientation;1
8;121;124;3;2.26454610005021;1;-58;21;Blonde et al. (2023);Experiment 2;Orientation;1
8;13;22;9;1.76411719992757;1;-72;22;Blonde et al. (2023);Experiment 2;Orientation;1
8;125;139;14;0.948970899917185;1;68;23;Blonde et al. (2023);Experiment 2;Orientation;1
8;60;43;-17;1.40676779998466;1;65;24;Blonde et al. (2023);Experiment 2;Orientation;1
8;48;142;-86;1.90605940017849;1;12;25;Blonde et al. (2023);Experiment 2;Orientation;1
8;106;122;16;1.45621989993379;1;-58;26;Blonde et al. (2023);Experiment 2;Orientation;1
8;170;161;-9;0.956084700068459;1;-64;27;Blonde et al. (2023);Experiment 2;Orientation;1
8;174;172;-2;1.12268140004016;1;-4;28;Blonde et al. (2023);Experiment 2;Orientation;1
8;121;140;19;1.84892579982989;1;53;29;Blonde et al. (2023);Experiment 2;Orientation;1
8;160;145;-15;1.27389440010302;1;-39;30;Blonde et al. (2023);Experiment 2;Orientation;1
8;24;16;-8;1.44785770005547;1;-44;31;Blonde et al. (2023);Experiment 2;Orientation;1
8;60;29;-31;1.01437680004165;1;-36;32;Blonde et al. (2023);Experiment 2;Orientation;1
8;31;23;-8;1.94881680002436;1;29;33;Blonde et al. (2023);Experiment 2;Orientation;1
8;152;137;-15;0.91496800002642;1;59;34;Blonde et al. (2023);Experiment 2;Orientation;1
8;21;20;-1;0.532113800058141;1;-49;35;Blonde et al. (2023);Experiment 2;Orientation;1
8;69;49;-20;1.92280389997177;1;-48;36;Blonde et al. (2023);Experiment 2;Orientation;1
8;60;35;-25;0.74828639999032;1;9;37;Blonde et al. (2023);Experiment 2;Orientation;1
8;146;84;-62;1.98935419996269;1;-86;38;Blonde et al. (2023);Experiment 2;Orientation;1
8;175;166;-9;1.30623169988394;1;-29;39;Blonde et al. (2023);Experiment 2;Orientation;1
8;23;24;1;1.7228568000719;1;-28;40;Blonde et al. (2023);Experiment 2;Orientation;1
8;112;115;3;2.51407409994863;1;-89;41;Blonde et al. (2023);Experiment 2;Orientation;1
8;80;72;-8;1.48196369991638;1;32;42;Blonde et al. (2023);Experiment 2;Orientation;1
8;64;51;-13;2.27365519991145;1;16;43;Blonde et al. (2023);Experiment 2;Orientation;1
8;128;125;-3;1.60706890001893;1;-64;44;Blonde et al. (2023);Experiment 2;Orientation;1
8;49;49;0;1.22268119989894;1;79;45;Blonde et al. (2023);Experiment 2;Orientation;1
8;90;96;6;1.38938899990171;1;-41;46;Blonde et al. (2023);Experiment 2;Orientation;1
8;118;4;66;1.26539830002002;1;-28;47;Blonde et al. (2023);Experiment 2;Orientation;1
8;176;7;11;1.08115929993801;1;-58;48;Blonde et al. (2023);Experiment 2;Orientation;1
8;61;143;82;0.989463199861348;1;-65;49;Blonde et al. (2023);Experiment 2;Orientation;1
8;140;120;-20;1.82210300001316;1;-79;50;Blonde et al. (2023);Experiment 2;Orientation;1
8;150;128;-22;1.49887869996019;1;-10;51;Blonde et al. (2023);Experiment 2;Orientation;1
8;42;30;-12;1.68942009983584;1;-72;52;Blonde et al. (2023);Experiment 2;Orientation;1
8;103;27;-76;1.18220270005986;1;-61;53;Blonde et al. (2023);Experiment 2;Orientation;1
8;26;43;17;2.3488610999193;1;77;54;Blonde et al. (2023);Experiment 2;Orientation;1
8;163;134;-29;1.05625779996626;1;43;55;Blonde et al. (2023);Experiment 2;Orientation;1
8;23;31;8;1.95722989994101;1;-40;56;Blonde et al. (2023);Experiment 2;Orientation;1
8;111;140;29;2.51432639989071;1;-88;57;Blonde et al. (2023);Experiment 2;Orientation;1
8;3;0;-3;1.57380220014602;1;-72;58;Blonde et al. (2023);Experiment 2;Orientation;1
8;26;20;-6;0.723894299939275;1;-23;59;Blonde et al. (2023);Experiment 2;Orientation;1
8;19;17;-2;0.965128300013021;1;7;60;Blonde et al. (2023);Experiment 2;Orientation;1
8;165;141;-24;1.35642309999093;1;34;61;Blonde et al. (2023);Experiment 2;Orientation;1
8;119;135;16;1.97292000008747;1;46;62;Blonde et al. (2023);Experiment 2;Orientation;1
8;35;32;-3;1.70714300009422;1;84;63;Blonde et al. (2023);Experiment 2;Orientation;1
8;171;70;79;1.57324519986287;1;44;64;Blonde et al. (2023);Experiment 2;Orientation;1
8;166;159;-7;1.09885430010036;1;5;65;Blonde et al. (2023);Experiment 2;Orientation;1
8;120;134;14;3.01532269991003;1;46;66;Blonde et al. (2023);Experiment 2;Orientation;1
8;171;160;-11;1.26545040006749;1;-51;67;Blonde et al. (2023);Experiment 2;Orientation;1
8;57;44;-13;2.15617860015482;1;-66;68;Blonde et al. (2023);Experiment 2;Orientation;1
8;174;152;-22;1.66420320002362;1;63;69;Blonde et al. (2023);Experiment 2;Orientation;1
8;160;158;-2;1.80623329989612;1;14;70;Blonde et al. (2023);Experiment 2;Orientation;1
8;41;21;-20;0.981922599952668;3;72;141;Blonde et al. (2023);Experiment 2;Orientation;1
8;178;175;-3;1.61463480000384;3;43;142;Blonde et al. (2023);Experiment 2;Orientation;1
8;99;107;8;1.03218470001593;3;79;143;Blonde et al. (2023);Experiment 2;Orientation;1
8;168;142;-26;0.890555000165477;3;-69;144;Blonde et al. (2023);Experiment 2;Orientation;1
8;102;110;8;1.1238281999249;3;66;145;Blonde et al. (2023);Experiment 2;Orientation;1
8;102;79;-23;0.798833099892363;3;0;146;Blonde et al. (2023);Experiment 2;Orientation;1
8;127;110;-17;1.96418990008533;3;-25;147;Blonde et al. (2023);Experiment 2;Orientation;1
8;44;42;-2;1.41557519999333;3;83;148;Blonde et al. (2023);Experiment 2;Orientation;1
8;137;133;-4;1.80717089981772;3;87;149;Blonde et al. (2023);Experiment 2;Orientation;1
8;61;54;-7;1.30719700013287;3;76;150;Blonde et al. (2023);Experiment 2;Orientation;1
8;40;49;9;0.982158200116828;3;21;151;Blonde et al. (2023);Experiment 2;Orientation;1
8;88;81;-7;1.31537530012429;3;-48;152;Blonde et al. (2023);Experiment 2;Orientation;1
8;1;49;48;1.06538149993867;3;87;153;Blonde et al. (2023);Experiment 2;Orientation;1
8;179;144;-35;1.01463179988787;3;2;154;Blonde et al. (2023);Experiment 2;Orientation;1
8;173;144;-29;1.01548000006005;3;6;155;Blonde et al. (2023);Experiment 2;Orientation;1
8;175;160;-15;1.37394699989818;3;-2;156;Blonde et al. (2023);Experiment 2;Orientation;1
8;1;113;-68;2.02306220005266;3;-6;157;Blonde et al. (2023);Experiment 2;Orientation;1
8;118;135;17;1.54879310005344;3;63;158;Blonde et al. (2023);Experiment 2;Orientation;1
8;99;109;10;1.82369420002215;3;19;159;Blonde et al. (2023);Experiment 2;Orientation;1
8;174;115;-59;3.29865349992178;3;-75;160;Blonde et al. (2023);Experiment 2;Orientation;1
8;104;114;10;0.865648799808696;3;70;161;Blonde et al. (2023);Experiment 2;Orientation;1
8;28;24;-4;1.17387569998391;3;76;162;Blonde et al. (2023);Experiment 2;Orientation;1
8;96;126;30;1.57376779988408;3;-68;163;Blonde et al. (2023);Experiment 2;Orientation;1
8;102;115;13;1.01554849999957;3;-6;164;Blonde et al. (2023);Experiment 2;Orientation;1
8;63;63;0;2.09867369988933;3;39;165;Blonde et al. (2023);Experiment 2;Orientation;1
8;68;63;-5;1.25708469981328;3;-5;166;Blonde et al. (2023);Experiment 2;Orientation;1
8;64;33;-31;1.19887540000491;3;4;167;Blonde et al. (2023);Experiment 2;Orientation;1
8;154;144;-10;0.782358900178224;3;-90;168;Blonde et al. (2023);Experiment 2;Orientation;1
8;149;138;-11;1.19880970008671;3;5;169;Blonde et al. (2023);Experiment 2;Orientation;1
8;54;58;4;1.50592590007;3;-85;170;Blonde et al. (2023);Experiment 2;Orientation;1
8;98;130;32;2.9235006000381;3;-44;171;Blonde et al. (2023);Experiment 2;Orientation;1
8;46;123;77;2.58206329983659;3;52;172;Blonde et al. (2023);Experiment 2;Orientation;1
8;114;123;9;1.48999670008197;3;-68;173;Blonde et al. (2023);Experiment 2;Orientation;1
8;107;130;23;1.52384539996274;3;7;174;Blonde et al. (2023);Experiment 2;Orientation;1
8;10;29;19;1.31551690003835;3;-83;175;Blonde et al. (2023);Experiment 2;Orientation;1
8;81;64;-17;1.9654061999172;3;-71;176;Blonde et al. (2023);Experiment 2;Orientation;1
8;145;135;-10;1.48072160012089;3;-64;177;Blonde et al. (2023);Experiment 2;Orientation;1
8;115;120;5;1.90618369984441;3;30;178;Blonde et al. (2023);Experiment 2;Orientation;1
8;157;139;-18;1.00720439990982;3;-42;179;Blonde et al. (2023);Experiment 2;Orientation;1
8;68;30;-38;1.84884979994968;3;89;180;Blonde et al. (2023);Experiment 2;Orientation;1
8;157;154;-3;1.12394580012187;3;-89;181;Blonde et al. (2023);Experiment 2;Orientation;1
8;31;140;-71;1.23925730003975;3;-54;182;Blonde et al. (2023);Experiment 2;Orientation;1
8;177;125;-52;1.39759259996936;3;34;183;Blonde et al. (2023);Experiment 2;Orientation;1
8;119;121;2;1.10620680009015;3;58;184;Blonde et al. (2023);Experiment 2;Orientation;1
8;107;128;21;1.18218280002475;3;12;185;Blonde et al. (2023);Experiment 2;Orientation;1
8;107;130;23;2.36548219993711;3;0;186;Blonde et al. (2023);Experiment 2;Orientation;1
8;15;31;16;1.45615080022253;3;-88;187;Blonde et al. (2023);Experiment 2;Orientation;1
8;30;36;6;0.8321824001614;3;-15;188;Blonde et al. (2023);Experiment 2;Orientation;1
8;87;91;4;0.690536999842152;3;-57;189;Blonde et al. (2023);Experiment 2;Orientation;1
8;26;23;-3;0.773724199971184;3;61;190;Blonde et al. (2023);Experiment 2;Orientation;1
8;49;39;-10;0.715413399972022;3;-23;191;Blonde et al. (2023);Experiment 2;Orientation;1
8;131;144;13;1.39790050010197;3;-82;192;Blonde et al. (2023);Experiment 2;Orientation;1
8;171;161;-10;1.05664380011149;3;-40;193;Blonde et al. (2023);Experiment 2;Orientation;1
8;174;171;-3;1.25697940005921;3;-3;194;Blonde et al. (2023);Experiment 2;Orientation;1
8;70;52;-18;1.49046610016376;3;-76;195;Blonde et al. (2023);Experiment 2;Orientation;1
8;51;29;-22;1.29877769993618;3;19;196;Blonde et al. (2023);Experiment 2;Orientation;1
8;112;116;4;1.4071900001727;3;-61;197;Blonde et al. (2023);Experiment 2;Orientation;1
8;75;112;37;2.07283689989708;3;37;198;Blonde et al. (2023);Experiment 2;Orientation;1
8;10;27;17;1.79950090008788;3;65;199;Blonde et al. (2023);Experiment 2;Orientation;1
8;65;49;-16;0.815520900068805;3;-55;200;Blonde et al. (2023);Experiment 2;Orientation;1
8;131;140;9;1.04754490009509;3;-66;201;Blonde et al. (2023);Experiment 2;Orientation;1
8;107;115;8;1.43218069989234;3;24;202;Blonde et al. (2023);Experiment 2;Orientation;1
8;19;41;22;2.9903791998513;3;88;203;Blonde et al. (2023);Experiment 2;Orientation;1
8;20;31;11;1.28214989998378;3;-1;204;Blonde et al. (2023);Experiment 2;Orientation;1
8;15;23;8;1.09043699991889;3;5;205;Blonde et al. (2023);Experiment 2;Orientation;1
8;95;109;14;2.36547990003601;3;-80;206;Blonde et al. (2023);Experiment 2;Orientation;1
8;103;117;14;1.09874659986235;3;-8;207;Blonde et al. (2023);Experiment 2;Orientation;1
8;179;12;13;2.23876300011761;3;-76;208;Blonde et al. (2023);Experiment 2;Orientation;1
8;147;14;47;1.03226129990071;3;32;209;Blonde et al. (2023);Experiment 2;Orientation;1
8;154;148;-6;1.53915100009181;3;-7;210;Blonde et al. (2023);Experiment 2;Orientation;1
9;176;2;6;2.00598330004141;2;57;71;Blonde et al. (2023);Experiment 2;Orientation;1
9;37;36;-1;1.08239690004848;2;-41;72;Blonde et al. (2023);Experiment 2;Orientation;1
9;115;124;9;25.4867145998869;2;-78;73;Blonde et al. (2023);Experiment 2;Orientation;1
9;38;41;3;0.498992000008002;2;77;74;Blonde et al. (2023);Experiment 2;Orientation;1
9;13;17;4;0.705812999978662;2;25;75;Blonde et al. (2023);Experiment 2;Orientation;1
9;34;39;5;0.89787570014596;2;-21;76;Blonde et al. (2023);Experiment 2;Orientation;1
9;65;42;-23;1.34862839989364;2;-31;77;Blonde et al. (2023);Experiment 2;Orientation;1
9;173;165;-8;2.76473759999499;2;72;78;Blonde et al. (2023);Experiment 2;Orientation;1
9;26;35;9;2.03958080010489;2;-33;79;Blonde et al. (2023);Experiment 2;Orientation;1
9;166;159;-7;1.36450329981744;2;40;80;Blonde et al. (2023);Experiment 2;Orientation;1
9;9;14;5;1.16547920019366;2;-23;81;Blonde et al. (2023);Experiment 2;Orientation;1
9;118;132;14;1.73969709989615;2;71;82;Blonde et al. (2023);Experiment 2;Orientation;1
9;134;129;-5;1.84053849987686;2;-16;83;Blonde et al. (2023);Experiment 2;Orientation;1
9;69;66;-3;1.28961450001225;2;65;84;Blonde et al. (2023);Experiment 2;Orientation;1
9;99;101;2;1.32379220006987;2;-30;85;Blonde et al. (2023);Experiment 2;Orientation;1
9;4;10;6;1.43128439993598;2;-85;86;Blonde et al. (2023);Experiment 2;Orientation;1
9;41;44;3;1.03106269985437;2;-37;87;Blonde et al. (2023);Experiment 2;Orientation;1
9;46;38;-8;0.973725399933755;2;-5;88;Blonde et al. (2023);Experiment 2;Orientation;1
9;37;29;-8;1.04881040006876;2;9;89;Blonde et al. (2023);Experiment 2;Orientation;1
9;117;131;14;0.690552999963984;2;-80;90;Blonde et al. (2023);Experiment 2;Orientation;1
9;32;29;-3;1.70619819988497;2;85;91;Blonde et al. (2023);Experiment 2;Orientation;1
9;22;27;5;1.18938679993153;2;10;92;Blonde et al. (2023);Experiment 2;Orientation;1
9;135;24;69;1.04780669999309;2;67;93;Blonde et al. (2023);Experiment 2;Orientation;1
9;4;10;6;1.53215919993818;2;-49;94;Blonde et al. (2023);Experiment 2;Orientation;1
9;71;55;-16;0.722844799980521;2;-67;95;Blonde et al. (2023);Experiment 2;Orientation;1
9;30;43;13;0.948775599943474;2;41;96;Blonde et al. (2023);Experiment 2;Orientation;1
9;110;117;7;1.17278190003708;2;-80;97;Blonde et al. (2023);Experiment 2;Orientation;1
9;112;132;20;1.19052860001102;2;-2;98;Blonde et al. (2023);Experiment 2;Orientation;1
9;92;102;10;1.05601229984313;2;20;99;Blonde et al. (2023);Experiment 2;Orientation;1
9;79;61;-18;0.757077099988237;2;13;100;Blonde et al. (2023);Experiment 2;Orientation;1
9;51;41;-10;2.17359559983015;2;28;101;Blonde et al. (2023);Experiment 2;Orientation;1
9;114;117;3;1.2147233998403;2;-63;102;Blonde et al. (2023);Experiment 2;Orientation;1
9;121;127;6;1.42367559997365;2;-7;103;Blonde et al. (2023);Experiment 2;Orientation;1
9;16;18;2;1.43210679991171;2;-75;104;Blonde et al. (2023);Experiment 2;Orientation;1
9;91;138;47;0.815531599801034;2;-75;105;Blonde et al. (2023);Experiment 2;Orientation;1
9;88;91;3;1.26571379997768;2;3;106;Blonde et al. (2023);Experiment 2;Orientation;1
9;33;26;-7;1.49863580008969;2;55;107;Blonde et al. (2023);Experiment 2;Orientation;1
9;53;41;-12;2.2482231000904;2;-20;108;Blonde et al. (2023);Experiment 2;Orientation;1
9;130;143;13;0.948972100159153;2;-77;109;Blonde et al. (2023);Experiment 2;Orientation;1
9;137;151;14;0.957184199942276;2;-7;110;Blonde et al. (2023);Experiment 2;Orientation;1
9;144;131;-13;0.965593999950215;2;-7;111;Blonde et al. (2023);Experiment 2;Orientation;1
9;101;113;12;1.58230000012554;2;43;112;Blonde et al. (2023);Experiment 2;Orientation;1
9;106;126;20;0.848882599966601;2;-5;113;Blonde et al. (2023);Experiment 2;Orientation;1
