obs;theta;resp;error;rt;block;delta;trial;study;experiment;stimulus;expnum
1;123;117;-6;1.37392230005935;1;NaN;1;Ceylan & Pascucci (2023);Experiment 2;Orientation;1
1;172;162;-10;1.39906909991987;1;-49;2;Ceylan & Pascucci (2023);Experiment 2;Orientation;1
1;8;15;7;2.90863210009411;1;-16;3;Ceylan & Pascucci (2023);Experiment 2;Orientation;1
1;76;66;-10;0.949903900036588;1;-68;4;Ceylan & Pascucci (2023);Experiment 2;Orientation;1
1;47;36;-11;0.941034799907357;1;29;5;Ceylan & Pascucci (2023);Experiment 2;Orientation;1
1;121;120;-1;1.43267300003208;1;-74;6;Ceylan & Pascucci (2023);Experiment 2;Orientation;1
1;175;171;-4;1.92538499995135;1;-54;7;Ceylan & Pascucci (2023);Experiment 2;Orientation;1
1;69;50;-19;2.23175419983454;1;-74;8;Ceylan & Pascucci (2023);Experiment 2;Orientation;1
1;180;166;-14;1.28312279982492;1;69;9;Ceylan & Pascucci (2023);Experiment 2;Orientation;1
1;59;63;4;1.18370179994963;1;-59;10;Ceylan & Pascucci (2023);Experiment 2;Orientation;1
1;155;157;2;1.19157349993475;1;84;11;Ceylan & Pascucci (2023);Experiment 2;Orientation;1
1;21;31;10;1.2914943001233;1;-46;12;Ceylan & Pascucci (2023);Experiment 2;Orientation;1
1;39;41;2;0.958267099922523;1;-18;13;Ceylan & Pascucci (2023);Experiment 2;Orientation;1
1;137;126;-11;1.25852949987166;1;82;14;Ceylan & Pascucci (2023);Experiment 2;Orientation;1
1;103;113;10;0.973872400121763;1;34;15;Ceylan & Pascucci (2023);Experiment 2;Orientation;1
1;51;46;-5;1.30854260013439;1;52;16;Ceylan & Pascucci (2023);Experiment 2;Orientation;1
1;34;38;4;1.69119430007413;1;17;17;Ceylan & Pascucci (2023);Experiment 2;Orientation;1
1;71;80;9;1.94054590002634;1;-37;18;Ceylan & Pascucci (2023);Experiment 2;Orientation;1
1;52;41;-11;1.35859739989974;1;19;19;Ceylan & Pascucci (2023);Experiment 2;Orientation;1
1;40;38;-2;2.17506110016257;1;12;20;Ceylan & Pascucci (2023);Experiment 2;Orientation;1
1;150;140;-10;1.43216699990444;1;70;21;Ceylan & Pascucci (2023);Experiment 2;Orientation;1
1;80;77;-3;0.675369600066915;1;70;22;Ceylan & Pascucci (2023);Experiment 2;Orientation;1
1;77;71;-6;1.16529939998873;1;3;23;Ceylan & Pascucci (2023);Experiment 2;Orientation;1
1;93;73;-20;1.25698609999381;1;-16;24;Ceylan & Pascucci (2023);Experiment 2;Orientation;1
1;79;76;-3;1.39217019989155;1;14;25;Ceylan & Pascucci (2023);Experiment 2;Orientation;1
1;54;48;-6;0.783286199904978;1;25;26;Ceylan & Pascucci (2023);Experiment 2;Orientation;1
1;63;61;-2;1.71515560010448;1;-9;27;Ceylan & Pascucci (2023);Experiment 2;Orientation;1
1;60;49;-11;0.841613299911842;1;3;28;Ceylan & Pascucci (2023);Experiment 2;Orientation;1
1;17;29;12;1.96522949985228;1;43;29;Ceylan & Pascucci (2023);Experiment 2;Orientation;1
1;95;103;8;1.81533170002513;1;-78;30;Ceylan & Pascucci (2023);Experiment 2;Orientation;1
1;178;176;-2;1.15030759992078;2;-83;31;Ceylan & Pascucci (2023);Experiment 2;Orientation;1
1;55;23;-32;2.29039860004559;2;-57;32;Ceylan & Pascucci (2023);Experiment 2;Orientation;1
1;58;47;-11;2.62396700005047;2;-3;33;Ceylan & Pascucci (2023);Experiment 2;Orientation;1
1;157;162;5;0.97541239997372;2;81;34;Ceylan & Pascucci (2023);Experiment 2;Orientation;1
1;151;154;3;1.51703540002927;2;6;35;Ceylan & Pascucci (2023);Experiment 2;Orientation;1
1;39;22;-17;0.86543140001595;2;-68;36;Ceylan & Pascucci (2023);Experiment 2;Orientation;1
1;50;24;-26;2.00018219999038;2;-11;37;Ceylan & Pascucci (2023);Experiment 2;Orientation;1
1;97;119;22;1.79067430016585;2;-47;38;Ceylan & Pascucci (2023);Experiment 2;Orientation;1
1;131;126;-5;1.55809940001927;2;-34;39;Ceylan & Pascucci (2023);Experiment 2;Orientation;1
1;49;33;-16;1.55810649995692;2;82;40;Ceylan & Pascucci (2023);Experiment 2;Orientation;1
1;74;69;-5;1.69034869992174;2;-25;41;Ceylan & Pascucci (2023);Experiment 2;Orientation;1
1;87;75;-12;1.84854899998754;2;-13;42;Ceylan & Pascucci (2023);Experiment 2;Orientation;1
1;180;159;-21;1.46555149997585;2;87;43;Ceylan & Pascucci (2023);Experiment 2;Orientation;1
1;70;66;-4;1.69881639978848;2;-70;44;Ceylan & Pascucci (2023);Experiment 2;Orientation;1
1;134;153;19;1.3406073001679;2;-64;45;Ceylan & Pascucci (2023);Experiment 2;Orientation;1
1;53;48;-5;1.21703249984421;2;81;46;Ceylan & Pascucci (2023);Experiment 2;Orientation;1
1;40;34;-6;0.94164859992452;2;13;47;Ceylan & Pascucci (2023);Experiment 2;Orientation;1
1;162;157;-5;1.7252368000336;2;58;48;Ceylan & Pascucci (2023);Experiment 2;Orientation;1
1;82;70;-12;1.47410780005157;2;80;49;Ceylan & Pascucci (2023);Experiment 2;Orientation;1
1;153;164;11;1.96694519999437;2;-71;50;Ceylan & Pascucci (2023);Experiment 2;Orientation;1
1;11;21;10;1.77519519999623;2;-38;51;Ceylan & Pascucci (2023);Experiment 2;Orientation;1
1;27;11;-16;2.37419639993459;2;-16;52;Ceylan & Pascucci (2023);Experiment 2;Orientation;1
1;45;28;-17;1.35026099998504;2;-18;53;Ceylan & Pascucci (2023);Experiment 2;Orientation;1
1;51;27;-24;1.2169683999382;2;-6;54;Ceylan & Pascucci (2023);Experiment 2;Orientation;1
1;135;162;27;1.50709829991683;2;-84;55;Ceylan & Pascucci (2023);Experiment 2;Orientation;1
1;63;41;-22;2.08316669985652;2;72;56;Ceylan & Pascucci (2023);Experiment 2;Orientation;1
1;154;168;14;1.98190649994649;2;89;57;Ceylan & Pascucci (2023);Experiment 2;Orientation;1
1;153;155;2;1.47489009983838;2;1;58;Ceylan & Pascucci (2023);Experiment 2;Orientation;1
1;104;95;-9;1.57482440001331;2;49;59;Ceylan & Pascucci (2023);Experiment 2;Orientation;1
1;155;166;11;1.8669302999042;2;-51;60;Ceylan & Pascucci (2023);Experiment 2;Orientation;1
1;17;9;-8;0.841889099916443;3;-42;61;Ceylan & Pascucci (2023);Experiment 2;Orientation;1
1;26;32;6;1.62424469995312;3;-9;62;Ceylan & Pascucci (2023);Experiment 2;Orientation;1
1;118;126;8;1.24158830009401;3;88;63;Ceylan & Pascucci (2023);Experiment 2;Orientation;1
1;177;177;0;1.40822869981639;3;-59;64;Ceylan & Pascucci (2023);Experiment 2;Orientation;1
1;77;67;-10;1.53311519999988;3;-80;65;Ceylan & Pascucci (2023);Experiment 2;Orientation;1
1;98;96;-2;2.32475670007989;3;-21;66;Ceylan & Pascucci (2023);Experiment 2;Orientation;1
1;73;66;-7;0.900584799936041;3;25;67;Ceylan & Pascucci (2023);Experiment 2;Orientation;1
1;28;20;-8;1.33371019992046;3;45;68;Ceylan & Pascucci (2023);Experiment 2;Orientation;1
1;71;45;-26;0.891901899827644;3;-43;69;Ceylan & Pascucci (2023);Experiment 2;Orientation;1
1;8;16;8;1.61646499997005;3;63;70;Ceylan & Pascucci (2023);Experiment 2;Orientation;1
1;176;179;3;0.975016199983656;3;12;71;Ceylan & Pascucci (2023);Experiment 2;Orientation;1
1;145;140;-5;1.15879389992915;3;31;72;Ceylan & Pascucci (2023);Experiment 2;Orientation;1
1;78;72;-6;0.583298800047487;3;67;73;Ceylan & Pascucci (2023);Experiment 2;Orientation;1
1;172;162;-10;1.70854049990885;3;86;74;Ceylan & Pascucci (2023);Experiment 2;Orientation;1
1;84;62;-22;1.9239006000571;3;88;75;Ceylan & Pascucci (2023);Experiment 2;Orientation;1
1;158;157;-1;2.03262439998798;3;-74;76;Ceylan & Pascucci (2023);Experiment 2;Orientation;1
1;17;22;5;2.12532140011899;3;-39;77;Ceylan & Pascucci (2023);Experiment 2;Orientation;1
1;91;96;5;2.2917613000609;3;-74;78;Ceylan & Pascucci (2023);Experiment 2;Orientation;1
1;174;9;15;1.14907839987427;3;-83;79;Ceylan & Pascucci (2023);Experiment 2;Orientation;1
1;105;96;-9;1.99854119983502;3;69;80;Ceylan & Pascucci (2023);Experiment 2;Orientation;1
1;175;159;-16;1.49981660000049;3;-70;81;Ceylan & Pascucci (2023);Experiment 2;Orientation;1
1;174;174;0;1.1081831001211;3;1;82;Ceylan & Pascucci (2023);Experiment 2;Orientation;1
1;87;97;10;1.55001460015774;3;87;83;Ceylan & Pascucci (2023);Experiment 2;Orientation;1
1;159;84;-75;1.2832378000021;3;-72;84;Ceylan & Pascucci (2023);Experiment 2;Orientation;1
1;151;165;14;1.04204600001685;3;8;85;Ceylan & Pascucci (2023);Experiment 2;Orientation;1
1;2;8;6;0.958788600051776;3;-31;86;Ceylan & Pascucci (2023);Experiment 2;Orientation;1
1;106;98;-8;2.25846670009196;3;76;87;Ceylan & Pascucci (2023);Experiment 2;Orientation;1
1;145;158;13;1.30017880001105;3;-39;88;Ceylan & Pascucci (2023);Experiment 2;Orientation;1
1;20;21;1;0.98366229981184;3;-55;89;Ceylan & Pascucci (2023);Experiment 2;Orientation;1
1;6;19;13;1.38318150001578;3;14;90;Ceylan & Pascucci (2023);Experiment 2;Orientation;1
1;69;69;0;1.71666030003689;4;-63;91;Ceylan & Pascucci (2023);Experiment 2;Orientation;1
1;88;93;5;1.44158099987544;4;-19;92;Ceylan & Pascucci (2023);Experiment 2;Orientation;1
1;41;25;-16;1.29129470000044;4;47;93;Ceylan & Pascucci (2023);Experiment 2;Orientation;1
1;163;172;9;1.38375400006771;4;58;94;Ceylan & Pascucci (2023);Experiment 2;Orientation;1
1;68;54;-14;1.3749346002005;4;-85;95;Ceylan & Pascucci (2023);Experiment 2;Orientation;1
1;56;70;14;2.36705509992316;4;12;96;Ceylan & Pascucci (2023);Experiment 2;Orientation;1
1;158;161;3;1.66717529995367;4;78;97;Ceylan & Pascucci (2023);Experiment 2;Orientation;1
1;175;168;-7;1.71648219996132;4;-17;98;Ceylan & Pascucci (2023);Experiment 2;Orientation;1
1;33;27;-6;1.0738799998071;4;-38;99;Ceylan & Pascucci (2023);Experiment 2;Orientation;1
1;158;164;6;1.03350779996254;4;55;100;Ceylan & Pascucci (2023);Experiment 2;Orientation;1
1;3;2;-1;1.29204820003361;4;-25;101;Ceylan & Pascucci (2023);Experiment 2;Orientation;1
1;10;11;1;1.26708230003715;4;-7;102;Ceylan & Pascucci (2023);Experiment 2;Orientation;1
1;8;6;-2;1.25001740013249;4;2;103;Ceylan & Pascucci (2023);Experiment 2;Orientation;1
1;91;176;85;1.08251650002785;4;-83;104;Ceylan & Pascucci (2023);Experiment 2;Orientation;1
1;87;92;5;1.34153410000727;4;4;105;Ceylan & Pascucci (2023);Experiment 2;Orientation;1
1;139;136;-3;1.19147050008178;4;-52;106;Ceylan & Pascucci (2023);Experiment 2;Orientation;1
1;6;10;4;1.51690669986419;4;-47;107;Ceylan & Pascucci (2023);Experiment 2;Orientation;1
1;165;175;10;1.00851909979247;4;21;108;Ceylan & Pascucci (2023);Experiment 2;Orientation;1
1;19;7;-12;1.61737339990214;4;-34;109;Ceylan & Pascucci (2023);Experiment 2;Orientation;1
1;53;32;-21;1.19929979997687;4;-34;110;Ceylan & Pascucci (2023);Experiment 2;Orientation;1
1;16;15;-1;1.9501414000988;4;37;111;Ceylan & Pascucci (2023);Experiment 2;Orientation;1
1;167;15;28;1.31655200012028;4;29;112;Ceylan & Pascucci (2023);Experiment 2;Orientation;1
1;46;48;2;1.87420809990726;4;-59;113;Ceylan & Pascucci (2023);Experiment 2;Orientation;1
1;46;48;2;1.15710240020417;4;0;114;Ceylan & Pascucci (2023);Experiment 2;Orientation;1
1;122;107;-15;1.83311960007995;4;-76;115;Ceylan & Pascucci (2023);Experiment 2;Orientation;1
1;42;52;10;1.65856459992938;4;80;116;Ceylan & Pascucci (2023);Experiment 2;Orientation;1
1;22;40;18;0.807356999954209;4;20;117;Ceylan & Pascucci (2023);Experiment 2;Orientation;1
1;128;158;30;0.71705439989455;4;74;118;Ceylan & Pascucci (2023);Experiment 2;Orientation;1
1;95;94;-1;1.61693570017815;4;33;119;Ceylan & Pascucci (2023);Experiment 2;Orientation;1
1;56;66;10;1.21661560004577;4;39;120;Ceylan & Pascucci (2023);Experiment 2;Orientation;1
1;142;146;4;1.05811890005134;5;-86;121;Ceylan & Pascucci (2023);Experiment 2;Orientation;1
1;12;21;9;1.01563640008681;5;-50;122;Ceylan & Pascucci (2023);Experiment 2;Orientation;1
1;27;18;-9;1.04039969993755;5;-15;123;Ceylan & Pascucci (2023);Experiment 2;Orientation;1
1;69;24;-45;1.09189909999259;5;-42;124;Ceylan & Pascucci (2023);Experiment 2;Orientation;1
1;98;97;-1;1.38225060002878;5;-29;125;Ceylan & Pascucci (2023);Experiment 2;Orientation;1
1;147;150;3;1.56566799990833;5;-49;126;Ceylan & Pascucci (2023);Experiment 2;Orientation;1
1;41;41;0;1.56561359995976;5;-74;127;Ceylan & Pascucci (2023);Experiment 2;Orientation;1
1;93;95;2;1.18365669995546;5;-52;128;Ceylan & Pascucci (2023);Experiment 2;Orientation;1
1;66;69;3;1.31528860004619;5;27;129;Ceylan & Pascucci (2023);Experiment 2;Orientation;1
1;175;178;3;1.20804659998976;5;71;130;Ceylan & Pascucci (2023);Experiment 2;Orientation;1
1;74;70;-4;1.05832240008749;5;-79;131;Ceylan & Pascucci (2023);Experiment 2;Orientation;1
1;20;36;16;0.99872829997912;5;54;132;Ceylan & Pascucci (2023);Experiment 2;Orientation;1
1;145;146;1;1.31699929991737;5;55;133;Ceylan & Pascucci (2023);Experiment 2;Orientation;1
1;131;108;-23;1.55832670000382;5;14;134;Ceylan & Pascucci (2023);Experiment 2;Orientation;1
1;67;55;-12;1.71473390003666;5;64;135;Ceylan & Pascucci (2023);Experiment 2;Orientation;1
1;127;120;-7;2.14902290003374;5;-60;136;Ceylan & Pascucci (2023);Experiment 2;Orientation;1
1;78;68;-10;0.932505700038746;5;49;137;Ceylan & Pascucci (2023);Experiment 2;Orientation;1
1;133;127;-6;1.6165765998885;5;-55;138;Ceylan & Pascucci (2023);Experiment 2;Orientation;1
1;107;110;3;1.31660849996842;5;26;139;Ceylan & Pascucci (2023);Experiment 2;Orientation;1
1;97;108;11;1.56705629988573;5;10;140;Ceylan & Pascucci (2023);Experiment 2;Orientation;1
1;142;128;-14;1.78359750006348;5;-45;141;Ceylan & Pascucci (2023);Experiment 2;Orientation;1
1;178;7;9;1.19151519984007;5;-36;142;Ceylan & Pascucci (2023);Experiment 2;Orientation;1
1;177;176;-1;1.60785509995185;5;1;143;Ceylan & Pascucci (2023);Experiment 2;Orientation;1
1;142;3;41;1.22401979984716;5;35;144;Ceylan & Pascucci (2023);Experiment 2;Orientation;1
1;106;171;65;0.983721799915656;5;36;145;Ceylan & Pascucci (2023);Experiment 2;Orientation;1
1;166;160;-6;1.61571340006776;5;-60;146;Ceylan & Pascucci (2023);Experiment 2;Orientation;1
1;10;16;6;2.04122440004721;5;-24;147;Ceylan & Pascucci (2023);Experiment 2;Orientation;1
1;132;146;14;1.56575569999404;5;58;148;Ceylan & Pascucci (2023);Experiment 2;Orientation;1
1;121;140;19;1.25824270001613;5;11;149;Ceylan & Pascucci (2023);Experiment 2;Orientation;1
1;89;79;-10;1.42508149985224;5;32;150;Ceylan & Pascucci (2023);Experiment 2;Orientation;1
1;104;112;8;0.707791700027883;6;-15;151;Ceylan & Pascucci (2023);Experiment 2;Orientation;1
1;115;130;15;1.09033769997768;6;-11;152;Ceylan & Pascucci (2023);Experiment 2;Orientation;1
1;145;138;-7;1.27528290008195;6;-30;153;Ceylan & Pascucci (2023);Experiment 2;Orientation;1
1;141;126;-15;1.44928169995546;6;4;154;Ceylan & Pascucci (2023);Experiment 2;Orientation;1
1;173;165;-8;1.12444970011711;6;-32;155;Ceylan & Pascucci (2023);Experiment 2;Orientation;1
1;117;122;5;1.12523410003632;6;56;156;Ceylan & Pascucci (2023);Experiment 2;Orientation;1
1;137;127;-10;2.03263540007174;6;-20;157;Ceylan & Pascucci (2023);Experiment 2;Orientation;1
1;14;17;3;1.18369740014896;6;-57;158;Ceylan & Pascucci (2023);Experiment 2;Orientation;1
1;46;46;0;0.975284100044519;6;-32;159;Ceylan & Pascucci (2023);Experiment 2;Orientation;1
1;136;140;4;1.1749871999491;6;-90;160;Ceylan & Pascucci (2023);Experiment 2;Orientation;1
1;57;26;-31;1.24105690000579;6;79;161;Ceylan & Pascucci (2023);Experiment 2;Orientation;1
1;70;49;-21;0.758199099916965;6;-13;162;Ceylan & Pascucci (2023);Experiment 2;Orientation;1
1;9;22;13;0.900368199916556;6;61;163;Ceylan & Pascucci (2023);Experiment 2;Orientation;1
1;91;91;0;2.5664751001168;6;-82;164;Ceylan & Pascucci (2023);Experiment 2;Orientation;1
1;94;20;-74;0.991882300004363;6;-3;165;Ceylan & Pascucci (2023);Experiment 2;Orientation;1
1;166;174;8;2.62475589988753;6;-72;166;Ceylan & Pascucci (2023);Experiment 2;Orientation;1
1;32;30;-2;1.73261389997788;6;-46;167;Ceylan & Pascucci (2023);Experiment 2;Orientation;1
1;91;90;-1;0.799798900028691;6;-59;168;Ceylan & Pascucci (2023);Experiment 2;Orientation;1
1;143;148;5;1.71565539995208;6;-52;169;Ceylan & Pascucci (2023);Experiment 2;Orientation;1
1;128;132;4;1.8903347000014;6;15;170;Ceylan & Pascucci (2023);Experiment 2;Orientation;1
1;118;125;7;1.00828760000877;6;10;171;Ceylan & Pascucci (2023);Experiment 2;Orientation;1
1;166;167;1;1.04993270011619;6;-48;172;Ceylan & Pascucci (2023);Experiment 2;Orientation;1
1;87;94;7;2.20719330012798;6;79;173;Ceylan & Pascucci (2023);Experiment 2;Orientation;1
1;38;25;-13;0.697704499820247;6;49;174;Ceylan & Pascucci (2023);Experiment 2;Orientation;1
1;75;81;6;2.04154050000943;6;-37;175;Ceylan & Pascucci (2023);Experiment 2;Orientation;1
1;20;24;4;1.11542899999768;6;55;176;Ceylan & Pascucci (2023);Experiment 2;Orientation;1
1;22;20;-2;1.65843229996972;6;-2;177;Ceylan & Pascucci (2023);Experiment 2;Orientation;1
1;70;75;5;1.78194199991412;6;-48;178;Ceylan & Pascucci (2023);Experiment 2;Orientation;1
1;170;163;-7;1.67403700016439;6;80;179;Ceylan & Pascucci (2023);Experiment 2;Orientation;1
1;170;161;-9;1.37484359997325;6;0;180;Ceylan & Pascucci (2023);Experiment 2;Orientation;1
1;59;50;-9;1.45792439999059;7;-69;181;Ceylan & Pascucci (2023);Experiment 2;Orientation;1
1;125;128;3;1.24935709987767;7;-66;182;Ceylan & Pascucci (2023);Experiment 2;Orientation;1
1;45;38;-7;0.999275800073519;7;80;183;Ceylan & Pascucci (2023);Experiment 2;Orientation;1
1;146;148;2;0.874935499858111;7;79;184;Ceylan & Pascucci (2023);Experiment 2;Orientation;1
1;91;93;2;1.19145540008321;7;55;185;Ceylan & Pascucci (2023);Experiment 2;Orientation;1
1;95;94;-1;1.65026529994793;7;-4;186;Ceylan & Pascucci (2023);Experiment 2;Orientation;1
1;47;66;19;0.933314999798313;7;48;187;Ceylan & Pascucci (2023);Experiment 2;Orientation;1
1;42;50;8;1.50732280011289;7;5;188;Ceylan & Pascucci (2023);Experiment 2;Orientation;1
1;11;11;0;1.35734400013462;7;31;189;Ceylan & Pascucci (2023);Experiment 2;Orientation;1
1;115;117;2;1.15861249994487;7;76;190;Ceylan & Pascucci (2023);Experiment 2;Orientation;1
1;135;140;5;0.716559400083497;7;-20;191;Ceylan & Pascucci (2023);Experiment 2;Orientation;1
1;163;162;-1;1.4335811000783;7;-28;192;Ceylan & Pascucci (2023);Experiment 2;Orientation;1
1;14;7;-7;0.849044800037518;7;-31;193;Ceylan & Pascucci (2023);Experiment 2;Orientation;1
1;100;99;-1;2.04156020004302;7;-86;194;Ceylan & Pascucci (2023);Experiment 2;Orientation;1
1;177;2;5;0.500012899981812;7;-77;195;Ceylan & Pascucci (2023);Experiment 2;Orientation;1
1;91;99;8;1.04160790005699;7;86;196;Ceylan & Pascucci (2023);Experiment 2;Orientation;1
1;99;88;-11;1.44868039991707;7;-8;197;Ceylan & Pascucci (2023);Experiment 2;Orientation;1
1;77;80;3;1.3082860999275;7;22;198;Ceylan & Pascucci (2023);Experiment 2;Orientation;1
1;35;59;24;1.26661879988387;7;42;199;Ceylan & Pascucci (2023);Experiment 2;Orientation;1
1;94;80;-14;1.43377120001242;7;-59;200;Ceylan & Pascucci (2023);Experiment 2;Orientation;1
1;168;157;-11;1.29907579999417;7;-74;201;Ceylan & Pascucci (2023);Experiment 2;Orientation;1
1;85;82;-3;1.58228310011327;7;83;202;Ceylan & Pascucci (2023);Experiment 2;Orientation;1
1;139;127;-12;1.3832588000223;7;-54;203;Ceylan & Pascucci (2023);Experiment 2;Orientation;1
1;79;87;8;0.783804300008342;7;60;204;Ceylan & Pascucci (2023);Experiment 2;Orientation;1
1;130;124;-6;1.40029010013677;7;-51;205;Ceylan & Pascucci (2023);Experiment 2;Orientation;1
1;75;70;-5;1.10031690006144;7;55;206;Ceylan & Pascucci (2023);Experiment 2;Orientation;1
1;159;168;9;1.15861049992964;7;-84;207;Ceylan & Pascucci (2023);Experiment 2;Orientation;1
1;65;75;10;1.23328629997559;7;-86;208;Ceylan & Pascucci (2023);Experiment 2;Orientation;1
1;44;52;8;1.07495310017839;7;21;209;Ceylan & Pascucci (2023);Experiment 2;Orientation;1
1;71;61;-10;0.458699999842793;7;-27;210;Ceylan & Pascucci (2023);Experiment 2;Orientation;1
1;4;164;-20;2.81634810008109;8;67;211;Ceylan & Pascucci (2023);Experiment 2;Orientation;1
1;173;175;2;1.37382370000705;8;11;212;Ceylan & Pascucci (2023);Experiment 2;Orientation;1
1;72;61;-11;0.650259200017899;8;-79;213;Ceylan & Pascucci (2023);Experiment 2;Orientation;1
1;4;171;-13;1.04930289997719;8;68;214;Ceylan & Pascucci (2023);Experiment 2;Orientation;1
1;93;108;15;0.875231199897826;8;-89;215;Ceylan & Pascucci (2023);Experiment 2;Orientation;1
1;117;121;4;1.12437560013495;8;-24;216;Ceylan & Pascucci (2023);Experiment 2;Orientation;1
1;23;34;11;1.78228339995258;8;-86;217;Ceylan & Pascucci (2023);Experiment 2;Orientation;1
1;27;24;-3;1.59974560001865;8;-4;218;Ceylan & Pascucci (2023);Experiment 2;Orientation;1
1;52;24;-28;0.691824899986386;8;-25;219;Ceylan & Pascucci (2023);Experiment 2;Orientation;1
1;75;81;6;1.12530800001696;8;-23;220;Ceylan & Pascucci (2023);Experiment 2;Orientation;1
1;133;114;-19;1.340333199827;8;-58;221;Ceylan & Pascucci (2023);Experiment 2;Orientation;1
1;29;21;-8;1.19183479994535;8;-76;222;Ceylan & Pascucci (2023);Experiment 2;Orientation;1
1;36;38;2;1.1660450999625;8;-7;223;Ceylan & Pascucci (2023);Experiment 2;Orientation;1
1;85;86;1;1.33169419993646;8;-49;224;Ceylan & Pascucci (2023);Experiment 2;Orientation;1
1;179;172;-7;1.85005340003408;8;86;225;Ceylan & Pascucci (2023);Experiment 2;Orientation;1
1;48;38;-10;1.02490349998698;8;-49;226;Ceylan & Pascucci (2023);Experiment 2;Orientation;1
1;143;142;-1;1.49863189994358;8;85;227;Ceylan & Pascucci (2023);Experiment 2;Orientation;1
1;157;154;-3;1.3419164000079;8;-14;228;Ceylan & Pascucci (2023);Experiment 2;Orientation;1
1;169;149;-20;1.03324200003408;8;-12;229;Ceylan & Pascucci (2023);Experiment 2;Orientation;1
1;46;34;-12;0.716598900035024;8;-57;230;Ceylan & Pascucci (2023);Experiment 2;Orientation;1
1;43;39;-4;1.04897890007123;8;3;231;Ceylan & Pascucci (2023);Experiment 2;Orientation;1
1;145;24;59;0.635873100021854;8;78;232;Ceylan & Pascucci (2023);Experiment 2;Orientation;1
1;90;90;0;1.70817180001177;8;55;233;Ceylan & Pascucci (2023);Experiment 2;Orientation;1
1;153;166;13;1.07532489998266;8;-63;234;Ceylan & Pascucci (2023);Experiment 2;Orientation;1
1;44;28;-16;1.13380589988083;8;-71;235;Ceylan & Pascucci (2023);Experiment 2;Orientation;1
1;3;174;-9;1.05820990004577;8;41;236;Ceylan & Pascucci (2023);Experiment 2;Orientation;1
1;96;177;81;1.85733280004933;8;87;237;Ceylan & Pascucci (2023);Experiment 2;Orientation;1
1;153;159;6;1.29194419994019;8;-57;238;Ceylan & Pascucci (2023);Experiment 2;Orientation;1
1;167;162;-5;1.90821060002781;8;-14;239;Ceylan & Pascucci (2023);Experiment 2;Orientation;1
1;72;70;-2;1.48307380010374;8;-85;240;Ceylan & Pascucci (2023);Experiment 2;Orientation;1
1;163;162;-1;0.692688700044528;9;89;241;Ceylan & Pascucci (2023);Experiment 2;Orientation;1
1;146;135;-11;1.157889300026;9;17;242;Ceylan & Pascucci (2023);Experiment 2;Orientation;1
1;173;174;1;1.29976759990677;9;-27;243;Ceylan & Pascucci (2023);Experiment 2;Orientation;1
1;74;39;-35;1.08242360013537;9;-81;244;Ceylan & Pascucci (2023);Experiment 2;Orientation;1
1;78;82;4;1.05823269998655;9;-4;245;Ceylan & Pascucci (2023);Experiment 2;Orientation;1
1;28;42;14;1.03273319988512;9;50;246;Ceylan & Pascucci (2023);Experiment 2;Orientation;1
1;167;163;-4;0.568725500022992;9;41;247;Ceylan & Pascucci (2023);Experiment 2;Orientation;1
1;7;7;0;1.69129520002753;9;-20;248;Ceylan & Pascucci (2023);Experiment 2;Orientation;1
1;103;110;7;1.19916739990003;9;84;249;Ceylan & Pascucci (2023);Experiment 2;Orientation;1
1;86;69;-17;0.932934799930081;9;17;250;Ceylan & Pascucci (2023);Experiment 2;Orientation;1
1;85;77;-8;1.9914182999637;9;1;251;Ceylan & Pascucci (2023);Experiment 2;Orientation;1
1;180;168;-12;1.13401939999312;9;85;252;Ceylan & Pascucci (2023);Experiment 2;Orientation;1
1;154;146;-8;1.15872039995156;9;26;253;Ceylan & Pascucci (2023);Experiment 2;Orientation;1
1;74;80;6;0.90710539999418;9;80;254;Ceylan & Pascucci (2023);Experiment 2;Orientation;1
1;116;121;5;1.10740379989147;9;-42;255;Ceylan & Pascucci (2023);Experiment 2;Orientation;1
1;103;106;3;1.16696569998749;9;13;256;Ceylan & Pascucci (2023);Experiment 2;Orientation;1
1;128;126;-2;0.666587500134483;9;-25;257;Ceylan & Pascucci (2023);Experiment 2;Orientation;1
1;156;151;-5;1.01606620009989;9;-28;258;Ceylan & Pascucci (2023);Experiment 2;Orientation;1
1;118;114;-4;1.27418880001642;9;38;259;Ceylan & Pascucci (2023);Experiment 2;Orientation;1
1;111;114;3;0.566533100092784;9;7;260;Ceylan & Pascucci (2023);Experiment 2;Orientation;1
1;171;178;7;1.33311360003427;9;-60;261;Ceylan & Pascucci (2023);Experiment 2;Orientation;1
1;149;150;1;1.31573530007154;9;22;262;Ceylan & Pascucci (2023);Experiment 2;Orientation;1
1;90;88;-2;2.05019440012984;9;59;263;Ceylan & Pascucci (2023);Experiment 2;Orientation;1
1;46;47;1;1.39892109995708;9;44;264;Ceylan & Pascucci (2023);Experiment 2;Orientation;1
1;24;17;-7;0.758663600077853;9;22;265;Ceylan & Pascucci (2023);Experiment 2;Orientation;1
1;118;124;6;2.04887330019847;9;86;266;Ceylan & Pascucci (2023);Experiment 2;Orientation;1
1;17;28;11;1.23379540001042;9;-79;267;Ceylan & Pascucci (2023);Experiment 2;Orientation;1
1;63;35;-28;0.583236699923873;9;-46;268;Ceylan & Pascucci (2023);Experiment 2;Orientation;1
1;4;177;-7;1.02492760005407;9;59;269;Ceylan & Pascucci (2023);Experiment 2;Orientation;1
1;57;45;-12;1.22479830007069;9;-53;270;Ceylan & Pascucci (2023);Experiment 2;Orientation;1
1;37;33;-4;1.222197300056;10;20;271;Ceylan & Pascucci (2023);Experiment 2;Orientation;1
1;155;148;-7;1.14191300002858;10;62;272;Ceylan & Pascucci (2023);Experiment 2;Orientation;1
1;59;52;-7;0.508250300073996;10;-84;273;Ceylan & Pascucci (2023);Experiment 2;Orientation;1
1;88;68;-20;1.09127679979429;10;-29;274;Ceylan & Pascucci (2023);Experiment 2;Orientation;1
1;169;156;-13;1.32399610010907;10;-81;275;Ceylan & Pascucci (2023);Experiment 2;Orientation;1
1;176;170;-6;1.25030199997127;10;-7;276;Ceylan & Pascucci (2023);Experiment 2;Orientation;1
1;138;141;3;1.14101669983938;10;38;277;Ceylan & Pascucci (2023);Experiment 2;Orientation;1
1;115;100;-15;1.42461970006116;10;23;278;Ceylan & Pascucci (2023);Experiment 2;Orientation;1
1;64;68;4;1.34080939996056;10;51;279;Ceylan & Pascucci (2023);Experiment 2;Orientation;1
1;13;57;44;0.81634599994868;10;51;280;Ceylan & Pascucci (2023);Experiment 2;Orientation;1
1;8;58;50;1.07498569996096;10;5;281;Ceylan & Pascucci (2023);Experiment 2;Orientation;1
1;86;90;4;1.62361370003782;10;-78;282;Ceylan & Pascucci (2023);Experiment 2;Orientation;1
1;10;14;4;1.44289850001223;10;76;283;Ceylan & Pascucci (2023);Experiment 2;Orientation;1
1;48;36;-12;1.50019799987786;10;-38;284;Ceylan & Pascucci (2023);Experiment 2;Orientation;1
1;135;139;4;1.07533889985643;10;-87;285;Ceylan & Pascucci (2023);Experiment 2;Orientation;1
1;35;40;5;1.58253180002794;10;-80;286;Ceylan & Pascucci (2023);Experiment 2;Orientation;1
1;98;115;17;1.22521659987979;10;-63;287;Ceylan & Pascucci (2023);Experiment 2;Orientation;1
1;109;119;10;1.10852920007892;10;-11;288;Ceylan & Pascucci (2023);Experiment 2;Orientation;1
1;6;7;1;1.09193830005825;10;-77;289;Ceylan & Pascucci (2023);Experiment 2;Orientation;1
1;8;12;4;1.03333639982156;10;-2;290;Ceylan & Pascucci (2023);Experiment 2;Orientation;1
1;163;175;12;1.42530379979871;10;25;291;Ceylan & Pascucci (2023);Experiment 2;Orientation;1
1;102;94;-8;1.50879769981839;10;61;292;Ceylan & Pascucci (2023);Experiment 2;Orientation;1
1;104;95;-9;1.54151860019192;10;-2;293;Ceylan & Pascucci (2023);Experiment 2;Orientation;1
1;122;103;-19;1.98174570011906;10;-18;294;Ceylan & Pascucci (2023);Experiment 2;Orientation;1
1;123;102;-21;1.39149009995162;10;-1;295;Ceylan & Pascucci (2023);Experiment 2;Orientation;1
1;155;132;-23;1.07493139989674;10;-32;296;Ceylan & Pascucci (2023);Experiment 2;Orientation;1
1;1;0;-1;1.36567369988188;10;-26;297;Ceylan & Pascucci (2023);Experiment 2;Orientation;1
1;108;103;-5;0.950178700033575;10;73;298;Ceylan & Pascucci (2023);Experiment 2;Orientation;1
1;120;100;-20;1.7165005998686;10;-12;299;Ceylan & Pascucci (2023);Experiment 2;Orientation;1
1;127;110;-17;3.32465520012192;10;-7;300;Ceylan & Pascucci (2023);Experiment 2;Orientation;1
2;73;83;10;2.03206619992852;1;NaN;1;Ceylan & Pascucci (2023);Experiment 2;Orientation;1
2;27;12;-15;2.00676060002297;1;46;2;Ceylan & Pascucci (2023);Experiment 2;Orientation;1
2;11;12;1;2.7250237998087;1;16;3;Ceylan & Pascucci (2023);Experiment 2;Orientation;1
2;89;90;1;3.16514299996197;1;-78;4;Ceylan & Pascucci (2023);Experiment 2;Orientation;1
2;77;84;7;2.19131599995308;1;12;5;Ceylan & Pascucci (2023);Experiment 2;Orientation;1
2;174;171;-3;1.9751611999236;1;83;6;Ceylan & Pascucci (2023);Experiment 2;Orientation;1
2;54;61;7;1.21653269999661;1;-60;7;Ceylan & Pascucci (2023);Experiment 2;Orientation;1
2;162;169;7;2.17501390003599;1;72;8;Ceylan & Pascucci (2023);Experiment 2;Orientation;1
2;14;1;-13;1.38254270004109;1;-32;9;Ceylan & Pascucci (2023);Experiment 2;Orientation;1
2;27;20;-7;1.49095589993522;1;-13;10;Ceylan & Pascucci (2023);Experiment 2;Orientation;1
2;129;130;1;1.53309370018542;1;78;11;Ceylan & Pascucci (2023);Experiment 2;Orientation;1
2;174;169;-5;1.20820660004392;1;-45;12;Ceylan & Pascucci (2023);Experiment 2;Orientation;1
2;62;47;-15;1.6243401998654;1;-68;13;Ceylan & Pascucci (2023);Experiment 2;Orientation;1
2;99;105;6;2.14969770004973;1;-37;14;Ceylan & Pascucci (2023);Experiment 2;Orientation;1
2;173;178;5;1.7751794999931;1;-74;15;Ceylan & Pascucci (2023);Experiment 2;Orientation;1
2;11;8;-3;1.28311740001664;1;-18;16;Ceylan & Pascucci (2023);Experiment 2;Orientation;1
2;102;100;-2;1.40826670010574;1;89;17;Ceylan & Pascucci (2023);Experiment 2;Orientation;1
2;128;153;25;1.56567539996468;1;-26;18;Ceylan & Pascucci (2023);Experiment 2;Orientation;1
2;172;175;3;1.71699109999463;1;-44;19;Ceylan & Pascucci (2023);Experiment 2;Orientation;1
2;173;172;-1;1.54066359996796;1;-1;20;Ceylan & Pascucci (2023);Experiment 2;Orientation;1
2;155;160;5;1.89988730009645;1;18;21;Ceylan & Pascucci (2023);Experiment 2;Orientation;1
2;145;148;3;1.14185740007088;1;10;22;Ceylan & Pascucci (2023);Experiment 2;Orientation;1
2;56;52;-4;0.741955899866298;1;89;23;Ceylan & Pascucci (2023);Experiment 2;Orientation;1
2;15;13;-2;2.62509720004164;1;41;24;Ceylan & Pascucci (2023);Experiment 2;Orientation;1
2;165;158;-7;0.958261499879882;1;30;25;Ceylan & Pascucci (2023);Experiment 2;Orientation;1
2;57;46;-11;0.865928899962455;1;-72;26;Ceylan & Pascucci (2023);Experiment 2;Orientation;1
2;26;22;-4;1.33360399981029;1;31;27;Ceylan & Pascucci (2023);Experiment 2;Orientation;1
2;120;126;6;2.31661100010388;1;86;28;Ceylan & Pascucci (2023);Experiment 2;Orientation;1
2;158;160;2;1.45039649982937;1;-38;29;Ceylan & Pascucci (2023);Experiment 2;Orientation;1
2;130;137;7;0.775422000093386;1;28;30;Ceylan & Pascucci (2023);Experiment 2;Orientation;1
2;75;70;-5;1.8085715000052;2;55;31;Ceylan & Pascucci (2023);Experiment 2;Orientation;1
2;157;150;-7;1.4657268000301;2;-82;32;Ceylan & Pascucci (2023);Experiment 2;Orientation;1
2;141;147;6;1.30025990004651;2;16;33;Ceylan & Pascucci (2023);Experiment 2;Orientation;1
2;73;67;-6;1.8749484999571;2;68;34;Ceylan & Pascucci (2023);Experiment 2;Orientation;1
2;37;31;-6;0.775397099787369;2;36;35;Ceylan & Pascucci (2023);Experiment 2;Orientation;1
2;82;81;-1;1.17445349995978;2;-45;36;Ceylan & Pascucci (2023);Experiment 2;Orientation;1
2;74;82;8;1.20093449996784;2;8;37;Ceylan & Pascucci (2023);Experiment 2;Orientation;1
2;160;164;4;1.29199209995568;2;-86;38;Ceylan & Pascucci (2023);Experiment 2;Orientation;1
2;124;131;7;1.80813699983992;2;36;39;Ceylan & Pascucci (2023);Experiment 2;Orientation;1
2;107;104;-3;1.97473760019056;2;17;40;Ceylan & Pascucci (2023);Experiment 2;Orientation;1
2;74;67;-7;2.06526149995625;2;33;41;Ceylan & Pascucci (2023);Experiment 2;Orientation;1
2;36;20;-16;1.13304629991762;2;38;42;Ceylan & Pascucci (2023);Experiment 2;Orientation;1
2;87;74;-13;1.22436480014585;2;-51;43;Ceylan & Pascucci (2023);Experiment 2;Orientation;1
2;40;41;1;1.27472770004533;2;47;44;Ceylan & Pascucci (2023);Experiment 2;Orientation;1
2;51;17;-34;1.77351990016177;2;-11;45;Ceylan & Pascucci (2023);Experiment 2;Orientation;1
2;23;13;-10;1.85759830009192;2;28;46;Ceylan & Pascucci (2023);Experiment 2;Orientation;1
2;31;14;-17;1.54053670004942;2;-8;47;Ceylan & Pascucci (2023);Experiment 2;Orientation;1
2;16;19;3;1.56688080006279;2;15;48;Ceylan & Pascucci (2023);Experiment 2;Orientation;1
2;5;9;4;1.39834480010904;2;11;49;Ceylan & Pascucci (2023);Experiment 2;Orientation;1
2;37;23;-14;0.874888899968937;2;-32;50;Ceylan & Pascucci (2023);Experiment 2;Orientation;1
2;147;143;-4;2.67376390006393;2;70;51;Ceylan & Pascucci (2023);Experiment 2;Orientation;1
2;40;33;-7;1.2069627000019;2;-73;52;Ceylan & Pascucci (2023);Experiment 2;Orientation;1
2;116;124;8;1.96638639993034;2;-76;53;Ceylan & Pascucci (2023);Experiment 2;Orientation;1
2;87;83;-4;1.69898870005272;2;29;54;Ceylan & Pascucci (2023);Experiment 2;Orientation;1
2;114;129;15;1.60796010005288;2;-27;55;Ceylan & Pascucci (2023);Experiment 2;Orientation;1
2;26;24;-2;1.57397420005873;2;88;56;Ceylan & Pascucci (2023);Experiment 2;Orientation;1
2;26;19;-7;1.54199689999223;2;0;57;Ceylan & Pascucci (2023);Experiment 2;Orientation;1
2;105;113;8;1.17487320001237;2;-79;58;Ceylan & Pascucci (2023);Experiment 2;Orientation;1
2;17;18;1;1.07481159991585;2;88;59;Ceylan & Pascucci (2023);Experiment 2;Orientation;1
2;36;25;-11;1.21645800000988;2;-19;60;Ceylan & Pascucci (2023);Experiment 2;Orientation;1
2;27;18;-9;2.10772190010175;3;9;61;Ceylan & Pascucci (2023);Experiment 2;Orientation;1
2;151;147;-4;1.31677999999374;3;56;62;Ceylan & Pascucci (2023);Experiment 2;Orientation;1
2;93;106;13;1.08373329997994;3;58;63;Ceylan & Pascucci (2023);Experiment 2;Orientation;1
2;11;6;-5;1.60777919995598;3;82;64;Ceylan & Pascucci (2023);Experiment 2;Orientation;1
2;165;169;4;1.33363709994592;3;26;65;Ceylan & Pascucci (2023);Experiment 2;Orientation;1
2;145;161;16;1.37535669980571;3;20;66;Ceylan & Pascucci (2023);Experiment 2;Orientation;1
2;10;6;-4;1.06598769989796;3;-45;67;Ceylan & Pascucci (2023);Experiment 2;Orientation;1
2;58;51;-7;1.6075273999013;3;-48;68;Ceylan & Pascucci (2023);Experiment 2;Orientation;1
2;34;18;-16;1.93306379998103;3;24;69;Ceylan & Pascucci (2023);Experiment 2;Orientation;1
2;164;166;2;2.37470240006223;3;50;70;Ceylan & Pascucci (2023);Experiment 2;Orientation;1
2;5;12;7;1.78303990000859;3;-21;71;Ceylan & Pascucci (2023);Experiment 2;Orientation;1
2;120;142;22;2.54896249994636;3;65;72;Ceylan & Pascucci (2023);Experiment 2;Orientation;1
2;77;24;-53;2.33532120008022;3;43;73;Ceylan & Pascucci (2023);Experiment 2;Orientation;1
2;112;124;12;2.01699590007775;3;-35;74;Ceylan & Pascucci (2023);Experiment 2;Orientation;1
2;63;47;-16;1.2004566998221;3;49;75;Ceylan & Pascucci (2023);Experiment 2;Orientation;1
2;70;55;-15;1.65816459991038;3;-7;76;Ceylan & Pascucci (2023);Experiment 2;Orientation;1
2;60;57;-3;1.681896999944;3;10;77;Ceylan & Pascucci (2023);Experiment 2;Orientation;1
2;89;75;-14;1.60012089996599;3;-29;78;Ceylan & Pascucci (2023);Experiment 2;Orientation;1
2;128;145;17;1.76670449995436;3;-39;79;Ceylan & Pascucci (2023);Experiment 2;Orientation;1
2;138;146;8;1.05785500002094;3;-10;80;Ceylan & Pascucci (2023);Experiment 2;Orientation;1
2;17;32;15;3.21538410009816;3;-59;81;Ceylan & Pascucci (2023);Experiment 2;Orientation;1
2;56;49;-7;0.732926500029862;3;-39;82;Ceylan & Pascucci (2023);Experiment 2;Orientation;1
2;98;120;22;1.24173609982245;3;-42;83;Ceylan & Pascucci (2023);Experiment 2;Orientation;1
2;86;97;11;1.55029929988086;3;12;84;Ceylan & Pascucci (2023);Experiment 2;Orientation;1
2;125;121;-4;1.81694649998099;3;-39;85;Ceylan & Pascucci (2023);Experiment 2;Orientation;1
2;58;44;-14;1.49156780005433;3;67;86;Ceylan & Pascucci (2023);Experiment 2;Orientation;1
2;66;54;-12;0.817016300046816;3;-8;87;Ceylan & Pascucci (2023);Experiment 2;Orientation;1
2;178;172;-6;1.49032410001382;3;68;88;Ceylan & Pascucci (2023);Experiment 2;Orientation;1
2;47;44;-3;1.60721200006083;3;-49;89;Ceylan & Pascucci (2023);Experiment 2;Orientation;1
2;12;11;-1;1.15759389987215;3;35;90;Ceylan & Pascucci (2023);Experiment 2;Orientation;1
2;52;37;-15;0.916520999977365;4;-40;91;Ceylan & Pascucci (2023);Experiment 2;Orientation;1
2;171;173;2;1.45825690007769;4;61;92;Ceylan & Pascucci (2023);Experiment 2;Orientation;1
2;130;128;-2;1.408151099924;4;41;93;Ceylan & Pascucci (2023);Experiment 2;Orientation;1
2;146;160;14;1.02491779997945;4;-16;94;Ceylan & Pascucci (2023);Experiment 2;Orientation;1
2;116;119;3;1.62519369996153;4;30;95;Ceylan & Pascucci (2023);Experiment 2;Orientation;1
2;90;101;11;2.274868800072;4;26;96;Ceylan & Pascucci (2023);Experiment 2;Orientation;1
2;59;39;-20;1.45865510008298;4;31;97;Ceylan & Pascucci (2023);Experiment 2;Orientation;1
2;14;14;0;1.53244420001283;4;45;98;Ceylan & Pascucci (2023);Experiment 2;Orientation;1
2;1;169;-12;2.1915311999619;4;13;99;Ceylan & Pascucci (2023);Experiment 2;Orientation;1
2;32;20;-12;1.09036400006153;4;-31;100;Ceylan & Pascucci (2023);Experiment 2;Orientation;1
2;90;99;9;1.71685989992693;4;-58;101;Ceylan & Pascucci (2023);Experiment 2;Orientation;1
2;87;93;6;1.88351610000245;4;3;102;Ceylan & Pascucci (2023);Experiment 2;Orientation;1
2;171;175;4;1.64201699988917;4;-84;103;Ceylan & Pascucci (2023);Experiment 2;Orientation;1
2;157;168;11;1.14185419981368;4;14;104;Ceylan & Pascucci (2023);Experiment 2;Orientation;1
2;141;156;15;1.05864519998431;4;16;105;Ceylan & Pascucci (2023);Experiment 2;Orientation;1
2;175;177;2;1.28222849988379;4;-34;106;Ceylan & Pascucci (2023);Experiment 2;Orientation;1
2;24;14;-10;1.64189799991436;4;-29;107;Ceylan & Pascucci (2023);Experiment 2;Orientation;1
2;72;67;-5;1.16663719993085;4;-48;108;Ceylan & Pascucci (2023);Experiment 2;Orientation;1
2;97;140;43;1.40829940000549;4;-25;109;Ceylan & Pascucci (2023);Experiment 2;Orientation;1
2;1;176;-5;0.899310800014064;4;-84;110;Ceylan & Pascucci (2023);Experiment 2;Orientation;1
2;64;46;-18;0.92486279993318;4;-63;111;Ceylan & Pascucci (2023);Experiment 2;Orientation;1
2;165;162;-3;0.658610200043768;4;79;112;Ceylan & Pascucci (2023);Experiment 2;Orientation;1
2;167;162;-5;1.36692610010505;4;-2;113;Ceylan & Pascucci (2023);Experiment 2;Orientation;1
2;64;28;-36;1.05211209994741;4;-77;114;Ceylan & Pascucci (2023);Experiment 2;Orientation;1
2;7;8;1;1.04985409998335;4;57;115;Ceylan & Pascucci (2023);Experiment 2;Orientation;1
2;93;99;6;1.32435929984786;4;-86;116;Ceylan & Pascucci (2023);Experiment 2;Orientation;1
2;43;17;-26;2.19888129993342;4;50;117;Ceylan & Pascucci (2023);Experiment 2;Orientation;1
2;98;104;6;1.58211060008034;4;-55;118;Ceylan & Pascucci (2023);Experiment 2;Orientation;1
2;78;74;-4;1.83323289989494;4;20;119;Ceylan & Pascucci (2023);Experiment 2;Orientation;1
2;9;5;-4;1.56694220006466;4;69;120;Ceylan & Pascucci (2023);Experiment 2;Orientation;1
2;172;168;-4;0.98354719998315;5;17;121;Ceylan & Pascucci (2023);Experiment 2;Orientation;1
2;5;11;6;1.74047469999641;5;-13;122;Ceylan & Pascucci (2023);Experiment 2;Orientation;1
2;47;22;-25;1.5404964000918;5;-42;123;Ceylan & Pascucci (2023);Experiment 2;Orientation;1
2;64;49;-15;1.1919823999051;5;-17;124;Ceylan & Pascucci (2023);Experiment 2;Orientation;1
2;145;140;-5;1.06550149992108;5;-81;125;Ceylan & Pascucci (2023);Experiment 2;Orientation;1
2;15;14;-1;2.2418390000239;5;-50;126;Ceylan & Pascucci (2023);Experiment 2;Orientation;1
2;57;48;-9;1.86642690002918;5;-42;127;Ceylan & Pascucci (2023);Experiment 2;Orientation;1
2;164;169;5;1.25777520006523;5;73;128;Ceylan & Pascucci (2023);Experiment 2;Orientation;1
2;88;96;8;1.99845699989237;5;76;129;Ceylan & Pascucci (2023);Experiment 2;Orientation;1
2;174;174;0;1.28354380000383;5;-86;130;Ceylan & Pascucci (2023);Experiment 2;Orientation;1
2;86;95;9;2.66640400001779;5;88;131;Ceylan & Pascucci (2023);Experiment 2;Orientation;1
2;22;23;1;1.26707910001278;5;64;132;Ceylan & Pascucci (2023);Experiment 2;Orientation;1
2;105;118;13;1.36575290001929;5;-83;133;Ceylan & Pascucci (2023);Experiment 2;Orientation;1
2;178;165;-13;1.55862149992026;5;-73;134;Ceylan & Pascucci (2023);Experiment 2;Orientation;1
2;105;119;14;1.98215070017613;5;73;135;Ceylan & Pascucci (2023);Experiment 2;Orientation;1
2;40;43;3;1.92386469990015;5;65;136;Ceylan & Pascucci (2023);Experiment 2;Orientation;1
2;129;127;-2;1.06717190006748;5;-89;137;Ceylan & Pascucci (2023);Experiment 2;Orientation;1
2;171;163;-8;1.85716110002249;5;-42;138;Ceylan & Pascucci (2023);Experiment 2;Orientation;1
2;37;14;-23;1.09153679991141;5;-46;139;Ceylan & Pascucci (2023);Experiment 2;Orientation;1
2;130;136;6;1.85713950009085;5;87;140;Ceylan & Pascucci (2023);Experiment 2;Orientation;1
2;31;28;-3;1.34096609987319;5;-81;141;Ceylan & Pascucci (2023);Experiment 2;Orientation;1
2;30;22;-8;1.13236190006137;5;1;142;Ceylan & Pascucci (2023);Experiment 2;Orientation;1
2;93;97;4;1.29065370000899;5;-63;143;Ceylan & Pascucci (2023);Experiment 2;Orientation;1
2;22;18;-4;1.00032420014031;5;71;144;Ceylan & Pascucci (2023);Experiment 2;Orientation;1
2;138;153;15;1.72544780001044;5;64;145;Ceylan & Pascucci (2023);Experiment 2;Orientation;1
2;94;99;5;1.3822271998506;5;44;146;Ceylan & Pascucci (2023);Experiment 2;Orientation;1
2;65;47;-18;0.97390879993327;5;29;147;Ceylan & Pascucci (2023);Experiment 2;Orientation;1
2;20;9;-11;2.14204460009933;5;45;148;Ceylan & Pascucci (2023);Experiment 2;Orientation;1
2;1;179;-2;1.17446139990352;5;19;149;Ceylan & Pascucci (2023);Experiment 2;Orientation;1
2;83;63;-20;0.883688500151038;5;-82;150;Ceylan & Pascucci (2023);Experiment 2;Orientation;1
2;134;154;20;1.8322477999609;6;-51;151;Ceylan & Pascucci (2023);Experiment 2;Orientation;1
2;127;131;4;0.9498905998189;6;7;152;Ceylan & Pascucci (2023);Experiment 2;Orientation;1
2;52;50;-2;0.991572800092399;6;75;153;Ceylan & Pascucci (2023);Experiment 2;Orientation;1
2;52;29;-23;1.23265499994159;6;0;154;Ceylan & Pascucci (2023);Experiment 2;Orientation;1
2;13;9;-4;1.25872829998843;6;39;155;Ceylan & Pascucci (2023);Experiment 2;Orientation;1
2;33;25;-8;1.33329010009766;6;-20;156;Ceylan & Pascucci (2023);Experiment 2;Orientation;1
2;47;44;-3;1.74899649992585;6;-14;157;Ceylan & Pascucci (2023);Experiment 2;Orientation;1
2;153;128;-25;1.40835500019602;6;74;158;Ceylan & Pascucci (2023);Experiment 2;Orientation;1
2;179;168;-11;1.04153780010529;6;-26;159;Ceylan & Pascucci (2023);Experiment 2;Orientation;1
2;135;151;16;1.80863570002839;6;44;160;Ceylan & Pascucci (2023);Experiment 2;Orientation;1
2;177;167;-10;1.14992909994908;6;-42;161;Ceylan & Pascucci (2023);Experiment 2;Orientation;1
2;121;125;4;0.932356200180948;6;56;162;Ceylan & Pascucci (2023);Experiment 2;Orientation;1
2;120;118;-2;1.24901899998076;6;1;163;Ceylan & Pascucci (2023);Experiment 2;Orientation;1
2;100;116;16;0.958559700055048;6;20;164;Ceylan & Pascucci (2023);Experiment 2;Orientation;1
2;11;6;-5;0.56693709990941;6;89;165;Ceylan & Pascucci (2023);Experiment 2;Orientation;1
2;122;123;1;0.874721999978647;6;69;166;Ceylan & Pascucci (2023);Experiment 2;Orientation;1
2;106;122;16;1.22525410004891;6;16;167;Ceylan & Pascucci (2023);Experiment 2;Orientation;1
2;76;73;-3;1.46530660009012;6;30;168;Ceylan & Pascucci (2023);Experiment 2;Orientation;1
2;23;39;16;1.15823699999601;6;53;169;Ceylan & Pascucci (2023);Experiment 2;Orientation;1
2;82;58;-24;0.85838899994269;6;-59;170;Ceylan & Pascucci (2023);Experiment 2;Orientation;1
2;45;37;-8;1.51538659981452;6;37;171;Ceylan & Pascucci (2023);Experiment 2;Orientation;1
2;39;45;6;1.01677479990758;6;6;172;Ceylan & Pascucci (2023);Experiment 2;Orientation;1
2;38;56;18;1.44193869992159;6;1;173;Ceylan & Pascucci (2023);Experiment 2;Orientation;1
2;115;132;17;1.40022790012881;6;-77;174;Ceylan & Pascucci (2023);Experiment 2;Orientation;1
2;84;66;-18;1.04142590006813;6;31;175;Ceylan & Pascucci (2023);Experiment 2;Orientation;1
2;97;108;11;0.876082999864593;6;-13;176;Ceylan & Pascucci (2023);Experiment 2;Orientation;1
2;155;161;6;1.12434180011041;6;-58;177;Ceylan & Pascucci (2023);Experiment 2;Orientation;1
2;161;159;-2;1.12527210009284;6;-6;178;Ceylan & Pascucci (2023);Experiment 2;Orientation;1
2;52;39;-13;0.766594500048086;6;-71;179;Ceylan & Pascucci (2023);Experiment 2;Orientation;1
2;52;39;-13;0.957669499795884;6;0;180;Ceylan & Pascucci (2023);Experiment 2;Orientation;1
2;156;156;0;1.8414396001026;7;76;181;Ceylan & Pascucci (2023);Experiment 2;Orientation;1
2;177;164;-13;1.18239250010811;7;-21;182;Ceylan & Pascucci (2023);Experiment 2;Orientation;1
2;101;107;6;1.64194540004246;7;76;183;Ceylan & Pascucci (2023);Experiment 2;Orientation;1
2;24;20;-4;1.26661910000257;7;77;184;Ceylan & Pascucci (2023);Experiment 2;Orientation;1
2;110;119;9;1.11567529989406;7;-86;185;Ceylan & Pascucci (2023);Experiment 2;Orientation;1
2;43;43;0;1.06689519993961;7;67;186;Ceylan & Pascucci (2023);Experiment 2;Orientation;1
2;48;33;-15;0.850263400003314;7;-5;187;Ceylan & Pascucci (2023);Experiment 2;Orientation;1
2;134;149;15;0.908703600056469;7;-86;188;Ceylan & Pascucci (2023);Experiment 2;Orientation;1
2;14;10;-4;1.1586823000107;7;-60;189;Ceylan & Pascucci (2023);Experiment 2;Orientation;1
2;159;143;-16;1.4164517999161;7;35;190;Ceylan & Pascucci (2023);Experiment 2;Orientation;1
2;105;104;-1;1.54196049994789;7;54;191;Ceylan & Pascucci (2023);Experiment 2;Orientation;1
2;52;47;-5;1.06542590004392;7;53;192;Ceylan & Pascucci (2023);Experiment 2;Orientation;1
2;144;136;-8;1.00029539992101;7;88;193;Ceylan & Pascucci (2023);Experiment 2;Orientation;1
2;33;17;-16;1.12527550011873;7;-69;194;Ceylan & Pascucci (2023);Experiment 2;Orientation;1
2;86;96;10;1.14985899999738;7;-53;195;Ceylan & Pascucci (2023);Experiment 2;Orientation;1
2;97;110;13;1.26654970017262;7;-11;196;Ceylan & Pascucci (2023);Experiment 2;Orientation;1
2;170;169;-1;1.49979209993035;7;-73;197;Ceylan & Pascucci (2023);Experiment 2;Orientation;1
2;38;24;-14;2.24055980006233;7;-48;198;Ceylan & Pascucci (2023);Experiment 2;Orientation;1
2;95;101;6;1.99033490009606;7;-57;199;Ceylan & Pascucci (2023);Experiment 2;Orientation;1
2;153;160;7;1.03317350009456;7;-58;200;Ceylan & Pascucci (2023);Experiment 2;Orientation;1
2;52;52;0;1.05858299997635;7;-79;201;Ceylan & Pascucci (2023);Experiment 2;Orientation;1
2;84;58;-26;1.14199649984948;7;-32;202;Ceylan & Pascucci (2023);Experiment 2;Orientation;1
2;34;13;-21;1.40827809995972;7;50;203;Ceylan & Pascucci (2023);Experiment 2;Orientation;1
2;141;143;2;1.04198099998757;7;73;204;Ceylan & Pascucci (2023);Experiment 2;Orientation;1
2;62;44;-18;0.749896599911153;7;79;205;Ceylan & Pascucci (2023);Experiment 2;Orientation;1
2;21;7;-14;1.16666049999185;7;41;206;Ceylan & Pascucci (2023);Experiment 2;Orientation;1
2;107;122;15;1.40867929998785;7;-86;207;Ceylan & Pascucci (2023);Experiment 2;Orientation;1
2;74;72;-2;1.39194069989026;7;33;208;Ceylan & Pascucci (2023);Experiment 2;Orientation;1
2;10;179;-11;4.04163659992628;7;64;209;Ceylan & Pascucci (2023);Experiment 2;Orientation;1
2;86;90;4;1.05027069989592;7;-76;210;Ceylan & Pascucci (2023);Experiment 2;Orientation;1
2;134;125;-9;1.30034670000896;8;-48;211;Ceylan & Pascucci (2023);Experiment 2;Orientation;1
2;133;150;17;1.31646450003609;8;1;212;Ceylan & Pascucci (2023);Experiment 2;Orientation;1
2;60;55;-5;0.824925699969754;8;73;213;Ceylan & Pascucci (2023);Experiment 2;Orientation;1
2;160;165;5;1.50812510005198;8;80;214;Ceylan & Pascucci (2023);Experiment 2;Orientation;1
2;9;7;-2;1.1171222999692;8;-29;215;Ceylan & Pascucci (2023);Experiment 2;Orientation;1
2;69;72;3;1.60024950001389;8;-60;216;Ceylan & Pascucci (2023);Experiment 2;Orientation;1
2;161;153;-8;1.11601029988378;8;88;217;Ceylan & Pascucci (2023);Experiment 2;Orientation;1
2;142;151;9;1.78290840005502;8;19;218;Ceylan & Pascucci (2023);Experiment 2;Orientation;1
2;47;31;-16;2.28151740017347;8;-85;219;Ceylan & Pascucci (2023);Experiment 2;Orientation;1
2;84;97;13;1.88258109986782;8;-37;220;Ceylan & Pascucci (2023);Experiment 2;Orientation;1
2;78;75;-3;1.30834969994612;8;6;221;Ceylan & Pascucci (2023);Experiment 2;Orientation;1
2;107;110;3;1.3252326999791;8;-29;222;Ceylan & Pascucci (2023);Experiment 2;Orientation;1
2;71;66;-5;1.10825200006366;8;36;223;Ceylan & Pascucci (2023);Experiment 2;Orientation;1
2;118;127;9;0.90019640000537;8;-47;224;Ceylan & Pascucci (2023);Experiment 2;Orientation;1
2;88;86;-2;1.35764970001765;8;30;225;Ceylan & Pascucci (2023);Experiment 2;Orientation;1
2;121;122;1;1.29992830008268;8;-33;226;Ceylan & Pascucci (2023);Experiment 2;Orientation;1
2;77;75;-2;0.949333499884233;8;44;227;Ceylan & Pascucci (2023);Experiment 2;Orientation;1
2;24;9;-15;0.966653300216421;8;53;228;Ceylan & Pascucci (2023);Experiment 2;Orientation;1
2;24;13;-11;1.09994690003805;8;0;229;Ceylan & Pascucci (2023);Experiment 2;Orientation;1
2;22;16;-6;1.32398570002988;8;2;230;Ceylan & Pascucci (2023);Experiment 2;Orientation;1
2;134;151;17;0.874759900150821;8;68;231;Ceylan & Pascucci (2023);Experiment 2;Orientation;1
2;55;44;-11;1.15854780003428;8;79;232;Ceylan & Pascucci (2023);Experiment 2;Orientation;1
2;171;169;-2;1.34203960001469;8;64;233;Ceylan & Pascucci (2023);Experiment 2;Orientation;1
2;97;104;7;1.19942640000954;8;74;234;Ceylan & Pascucci (2023);Experiment 2;Orientation;1
2;100;105;5;1.65846460009925;8;-3;235;Ceylan & Pascucci (2023);Experiment 2;Orientation;1
2;179;171;-8;1.46702979994006;8;-79;236;Ceylan & Pascucci (2023);Experiment 2;Orientation;1
2;127;135;8;1.02498669992201;8;52;237;Ceylan & Pascucci (2023);Experiment 2;Orientation;1
2;38;22;-16;1.00012340000831;8;89;238;Ceylan & Pascucci (2023);Experiment 2;Orientation;1
2;42;17;-25;0.999939600005746;8;-4;239;Ceylan & Pascucci (2023);Experiment 2;Orientation;1
2;94;102;8;1.24131640000269;8;-52;240;Ceylan & Pascucci (2023);Experiment 2;Orientation;1
2;116;120;4;1.21684210002422;9;-22;241;Ceylan & Pascucci (2023);Experiment 2;Orientation;1
2;176;170;-6;1.49193709995598;9;-60;242;Ceylan & Pascucci (2023);Experiment 2;Orientation;1
2;86;83;-3;1.82527039991692;9;90;243;Ceylan & Pascucci (2023);Experiment 2;Orientation;1
2;148;170;22;1.6988977000583;9;-62;244;Ceylan & Pascucci (2023);Experiment 2;Orientation;1
2;134;144;10;1.07439109985717;9;14;245;Ceylan & Pascucci (2023);Experiment 2;Orientation;1
2;78;76;-2;1.65033689979464;9;56;246;Ceylan & Pascucci (2023);Experiment 2;Orientation;1
2;7;33;26;1.88267870014533;9;71;247;Ceylan & Pascucci (2023);Experiment 2;Orientation;1
2;95;112;17;1.05850729998201;9;-88;248;Ceylan & Pascucci (2023);Experiment 2;Orientation;1
2;39;28;-11;1.16528610000387;9;56;249;Ceylan & Pascucci (2023);Experiment 2;Orientation;1
2;165;156;-9;1.25810740003362;9;54;250;Ceylan & Pascucci (2023);Experiment 2;Orientation;1
2;102;105;3;1.36570169986226;9;63;251;Ceylan & Pascucci (2023);Experiment 2;Orientation;1
2;162;164;2;1.36676169978455;9;-60;252;Ceylan & Pascucci (2023);Experiment 2;Orientation;1
2;125;137;12;1.49104170012288;9;37;253;Ceylan & Pascucci (2023);Experiment 2;Orientation;1
2;151;148;-3;0.783689100062475;9;-26;254;Ceylan & Pascucci (2023);Experiment 2;Orientation;1
2;45;36;-9;1.04146190010943;9;-74;255;Ceylan & Pascucci (2023);Experiment 2;Orientation;1
2;59;52;-7;1.52366399997845;9;-14;256;Ceylan & Pascucci (2023);Experiment 2;Orientation;1
2;18;38;20;1.66641549998894;9;41;257;Ceylan & Pascucci (2023);Experiment 2;Orientation;1
2;97;109;12;1.42430229997262;9;-79;258;Ceylan & Pascucci (2023);Experiment 2;Orientation;1
2;17;2;-15;1.11565029993653;9;80;259;Ceylan & Pascucci (2023);Experiment 2;Orientation;1
2;24;6;-18;1.76587359979749;9;-7;260;Ceylan & Pascucci (2023);Experiment 2;Orientation;1
2;142;162;20;1.49140870012343;9;62;261;Ceylan & Pascucci (2023);Experiment 2;Orientation;1
2;35;16;-19;1.79986519995145;9;-73;262;Ceylan & Pascucci (2023);Experiment 2;Orientation;1
2;91;100;9;1.09993330016732;9;-56;263;Ceylan & Pascucci (2023);Experiment 2;Orientation;1
2;123;121;-2;0.890252500073984;9;-32;264;Ceylan & Pascucci (2023);Experiment 2;Orientation;1
2;85;83;-2;1.11699180002324;9;38;265;Ceylan & Pascucci (2023);Experiment 2;Orientation;1
2;127;134;7;1.60723530012183;9;-42;266;Ceylan & Pascucci (2023);Experiment 2;Orientation;1
2;34;19;-15;1.14985940000042;9;-87;267;Ceylan & Pascucci (2023);Experiment 2;Orientation;1
2;103;117;14;0.875328900059685;9;-69;268;Ceylan & Pascucci (2023);Experiment 2;Orientation;1
2;84;77;-7;1.29036119999364;9;19;269;Ceylan & Pascucci (2023);Experiment 2;Orientation;1
2;174;167;-7;1.36667789984494;9;-90;270;Ceylan & Pascucci (2023);Experiment 2;Orientation;1
2;7;8;1;6.34874769998714;10;-13;271;Ceylan & Pascucci (2023);Experiment 2;Orientation;1
2;17;15;-2;1.23297619982623;10;-10;272;Ceylan & Pascucci (2023);Experiment 2;Orientation;1
2;53;40;-13;1.14199250005186;10;-36;273;Ceylan & Pascucci (2023);Experiment 2;Orientation;1
2;57;57;0;1.5582564000506;10;-4;274;Ceylan & Pascucci (2023);Experiment 2;Orientation;1
2;64;52;-12;1.1836041000206;10;-7;275;Ceylan & Pascucci (2023);Experiment 2;Orientation;1
2;107;101;-6;1.32493899995461;10;-43;276;Ceylan & Pascucci (2023);Experiment 2;Orientation;1
2;155;145;-10;1.23227579984814;10;-48;277;Ceylan & Pascucci (2023);Experiment 2;Orientation;1
2;79;75;-4;1.2748169999104;10;76;278;Ceylan & Pascucci (2023);Experiment 2;Orientation;1
2;102;110;8;0.999887499958277;10;-23;279;Ceylan & Pascucci (2023);Experiment 2;Orientation;1
2;158;162;4;0.991825300035998;10;-56;280;Ceylan & Pascucci (2023);Experiment 2;Orientation;1
2;134;138;4;1.06691859988496;10;24;281;Ceylan & Pascucci (2023);Experiment 2;Orientation;1
2;6;6;0;1.99842610000633;10;-52;282;Ceylan & Pascucci (2023);Experiment 2;Orientation;1
2;43;41;-2;0.724928900133818;10;-37;283;Ceylan & Pascucci (2023);Experiment 2;Orientation;1
2;2;172;-10;1.09198620007373;10;41;284;Ceylan & Pascucci (2023);Experiment 2;Orientation;1
2;119;120;1;1.24895959999412;10;63;285;Ceylan & Pascucci (2023);Experiment 2;Orientation;1
2;39;33;-6;1.09167010011151;10;80;286;Ceylan & Pascucci (2023);Experiment 2;Orientation;1
2;95;101;6;0.950277999974787;10;-56;287;Ceylan & Pascucci (2023);Experiment 2;Orientation;1
2;171;157;-14;1.29984100000001;10;-76;288;Ceylan & Pascucci (2023);Experiment 2;Orientation;1
2;52;35;-17;1.1421074999962;10;-61;289;Ceylan & Pascucci (2023);Experiment 2;Orientation;1
2;64;54;-10;1.99094359995797;10;-12;290;Ceylan & Pascucci (2023);Experiment 2;Orientation;1
2;133;132;-1;1.65688139991835;10;-69;291;Ceylan & Pascucci (2023);Experiment 2;Orientation;1
2;152;139;-13;0.965774200158194;10;-19;292;Ceylan & Pascucci (2023);Experiment 2;Orientation;1
2;146;149;3;1.29187309998088;10;6;293;Ceylan & Pascucci (2023);Experiment 2;Orientation;1
2;80;81;1;0.991504099918529;10;66;294;Ceylan & Pascucci (2023);Experiment 2;Orientation;1
2;120;129;9;1.19191169994883;10;-40;295;Ceylan & Pascucci (2023);Experiment 2;Orientation;1
2;110;120;10;1.50024030008353;10;10;296;Ceylan & Pascucci (2023);Experiment 2;Orientation;1
2;135;131;-4;1.55015680007637;10;-25;297;Ceylan & Pascucci (2023);Experiment 2;Orientation;1
2;18;17;-1;1.80007679993287;10;-63;298;Ceylan & Pascucci (2023);Experiment 2;Orientation;1
2;65;57;-8;1.79976189997979;10;-47;299;Ceylan & Pascucci (2023);Experiment 2;Orientation;1
2;179;9;10;0.858299700077623;10;66;300;Ceylan & Pascucci (2023);Experiment 2;Orientation;1
3;91;90;-1;2.72355809994042;1;NaN;1;Ceylan & Pascucci (2023);Experiment 2;Orientation;1
3;73;76;3;1.67478729994036;1;18;2;Ceylan & Pascucci (2023);Experiment 2;Orientation;1
3;36;35;-1;1.4749276000075;1;37;3;Ceylan & Pascucci (2023);Experiment 2;Orientation;1
3;64;70;6;1.70806049997918;1;-28;4;Ceylan & Pascucci (2023);Experiment 2;Orientation;1
3;74;65;-9;1.17526490008458;1;-10;5;Ceylan & Pascucci (2023);Experiment 2;Orientation;1
3;49;52;3;1.24203610001132;1;25;6;Ceylan & Pascucci (2023);Experiment 2;Orientation;1
3;15;11;-4;1.95850089984015;1;34;7;Ceylan & Pascucci (2023);Experiment 2;Orientation;1
3;65;64;-1;2.12475530011579;1;-50;8;Ceylan & Pascucci (2023);Experiment 2;Orientation;1
3;15;11;-4;1.34977729991078;1;50;9;Ceylan & Pascucci (2023);Experiment 2;Orientation;1
3;89;92;3;1.78290749993175;1;-74;10;Ceylan & Pascucci (2023);Experiment 2;Orientation;1
3;76;74;-2;1.44196549989283;1;13;11;Ceylan & Pascucci (2023);Experiment 2;Orientation;1
3;21;21;0;1.15872730012052;1;55;12;Ceylan & Pascucci (2023);Experiment 2;Orientation;1
3;128;132;4;5.19141529989429;1;73;13;Ceylan & Pascucci (2023);Experiment 2;Orientation;1
3;90;95;5;1.32363849994726;1;38;14;Ceylan & Pascucci (2023);Experiment 2;Orientation;1
3;145;135;-10;1.90019040019251;1;-55;15;Ceylan & Pascucci (2023);Experiment 2;Orientation;1
3;68;62;-6;2.30734489997849;1;77;16;Ceylan & Pascucci (2023);Experiment 2;Orientation;1
3;47;76;29;1.68312739999965;1;21;17;Ceylan & Pascucci (2023);Experiment 2;Orientation;1
3;106;117;11;1.44202830013819;1;-59;18;Ceylan & Pascucci (2023);Experiment 2;Orientation;1
3;81;71;-10;2.99913090001792;1;25;19;Ceylan & Pascucci (2023);Experiment 2;Orientation;1
3;119;113;-6;3.60702100000344;1;-38;20;Ceylan & Pascucci (2023);Experiment 2;Orientation;1
3;58;66;8;1.74979749997146;1;61;21;Ceylan & Pascucci (2023);Experiment 2;Orientation;1
3;156;160;4;1.62429099995643;1;82;22;Ceylan & Pascucci (2023);Experiment 2;Orientation;1
3;94;90;-4;2.391979200067;1;62;23;Ceylan & Pascucci (2023);Experiment 2;Orientation;1
3;172;166;-6;1.86679340014234;1;-78;24;Ceylan & Pascucci (2023);Experiment 2;Orientation;1
3;88;92;4;5.274483300047;1;84;25;Ceylan & Pascucci (2023);Experiment 2;Orientation;1
3;153;152;-1;1.74992019985802;1;-65;26;Ceylan & Pascucci (2023);Experiment 2;Orientation;1
3;30;27;-3;3.6083722000476;1;-57;27;Ceylan & Pascucci (2023);Experiment 2;Orientation;1
3;66;57;-9;1.25020850007422;1;-36;28;Ceylan & Pascucci (2023);Experiment 2;Orientation;1
3;7;13;6;1.27484260010533;1;59;29;Ceylan & Pascucci (2023);Experiment 2;Orientation;1
3;157;160;3;1.848922500154;1;30;30;Ceylan & Pascucci (2023);Experiment 2;Orientation;1
3;156;150;-6;1.66681009996682;2;1;31;Ceylan & Pascucci (2023);Experiment 2;Orientation;1
3;113;112;-1;1.1249017000664;2;43;32;Ceylan & Pascucci (2023);Experiment 2;Orientation;1
3;21;41;20;0.990267500048503;2;-88;33;Ceylan & Pascucci (2023);Experiment 2;Orientation;1
3;74;74;0;3.55743950000033;2;-53;34;Ceylan & Pascucci (2023);Experiment 2;Orientation;1
3;118;122;4;1.19990039989352;2;-44;35;Ceylan & Pascucci (2023);Experiment 2;Orientation;1
3;107;98;-9;3.34184610005468;2;11;36;Ceylan & Pascucci (2023);Experiment 2;Orientation;1
3;144;119;-25;2.05841489997692;2;-37;37;Ceylan & Pascucci (2023);Experiment 2;Orientation;1
3;82;83;1;2.57426119991578;2;62;38;Ceylan & Pascucci (2023);Experiment 2;Orientation;1
3;138;112;-26;3.832504699938;2;-56;39;Ceylan & Pascucci (2023);Experiment 2;Orientation;1
3;24;61;37;3.1744870999828;2;-66;40;Ceylan & Pascucci (2023);Experiment 2;Orientation;1
3;49;73;24;1.74058190011419;2;-25;41;Ceylan & Pascucci (2023);Experiment 2;Orientation;1
3;103;98;-5;2.84822660009377;2;-54;42;Ceylan & Pascucci (2023);Experiment 2;Orientation;1
3;171;173;2;2.83204120001756;2;-68;43;Ceylan & Pascucci (2023);Experiment 2;Orientation;1
3;176;20;24;1.78305520000868;2;-5;44;Ceylan & Pascucci (2023);Experiment 2;Orientation;1
3;89;85;-4;2.68341509997845;2;87;45;Ceylan & Pascucci (2023);Experiment 2;Orientation;1
3;151;163;12;3.31669669994153;2;-62;46;Ceylan & Pascucci (2023);Experiment 2;Orientation;1
3;75;69;-6;1.69149659993127;2;76;47;Ceylan & Pascucci (2023);Experiment 2;Orientation;1
3;140;121;-19;1.31650309986435;2;-65;48;Ceylan & Pascucci (2023);Experiment 2;Orientation;1
3;49;52;3;1.25811150018126;2;-89;49;Ceylan & Pascucci (2023);Experiment 2;Orientation;1
3;48;49;1;1.9655766999349;2;1;50;Ceylan & Pascucci (2023);Experiment 2;Orientation;1
3;44;48;4;1.73322200006805;2;4;51;Ceylan & Pascucci (2023);Experiment 2;Orientation;1
3;34;43;9;1.73214529990219;2;10;52;Ceylan & Pascucci (2023);Experiment 2;Orientation;1
3;11;27;16;5.56514200009406;2;23;53;Ceylan & Pascucci (2023);Experiment 2;Orientation;1
3;75;70;-5;1.99995599989779;2;-64;54;Ceylan & Pascucci (2023);Experiment 2;Orientation;1
3;63;67;4;1.79152420000173;2;12;55;Ceylan & Pascucci (2023);Experiment 2;Orientation;1
3;15;20;5;1.5909439001698;2;48;56;Ceylan & Pascucci (2023);Experiment 2;Orientation;1
3;13;21;8;1.92529989988543;2;2;57;Ceylan & Pascucci (2023);Experiment 2;Orientation;1
3;59;81;22;1.31689899996854;2;-46;58;Ceylan & Pascucci (2023);Experiment 2;Orientation;1
3;89;88;-1;1.85863509983756;2;-30;59;Ceylan & Pascucci (2023);Experiment 2;Orientation;1
3;168;160;-8;1.94094370002858;2;-79;60;Ceylan & Pascucci (2023);Experiment 2;Orientation;1
3;160;159;-1;2.03261730005033;3;8;61;Ceylan & Pascucci (2023);Experiment 2;Orientation;1
3;126;117;-9;1.95820560003631;3;34;62;Ceylan & Pascucci (2023);Experiment 2;Orientation;1
3;51;68;17;3.14861149992794;3;75;63;Ceylan & Pascucci (2023);Experiment 2;Orientation;1
3;124;127;3;1.40959419985302;3;-73;64;Ceylan & Pascucci (2023);Experiment 2;Orientation;1
3;54;69;15;2.01634950004518;3;70;65;Ceylan & Pascucci (2023);Experiment 2;Orientation;1
3;46;53;7;1.24998419987969;3;8;66;Ceylan & Pascucci (2023);Experiment 2;Orientation;1
3;64;72;8;1.66670159995556;3;-18;67;Ceylan & Pascucci (2023);Experiment 2;Orientation;1
3;122;114;-8;1.59184769983403;3;-58;68;Ceylan & Pascucci (2023);Experiment 2;Orientation;1
3;129;124;-5;1.59143949998543;3;-7;69;Ceylan & Pascucci (2023);Experiment 2;Orientation;1
3;106;106;0;0.900048800045624;3;23;70;Ceylan & Pascucci (2023);Experiment 2;Orientation;1
3;151;121;-30;1.97527830000035;3;-45;71;Ceylan & Pascucci (2023);Experiment 2;Orientation;1
3;112;101;-11;2.26681399997324;3;39;72;Ceylan & Pascucci (2023);Experiment 2;Orientation;1
3;134;133;-1;3.24129829998128;3;-22;73;Ceylan & Pascucci (2023);Experiment 2;Orientation;1
3;155;154;-1;1.40890210005455;3;-21;74;Ceylan & Pascucci (2023);Experiment 2;Orientation;1
3;82;81;-1;1.96688030008227;3;73;75;Ceylan & Pascucci (2023);Experiment 2;Orientation;1
3;156;151;-5;2.27471880009398;3;-74;76;Ceylan & Pascucci (2023);Experiment 2;Orientation;1
3;70;49;-21;1.06656789989211;3;86;77;Ceylan & Pascucci (2023);Experiment 2;Orientation;1
3;169;170;1;2.35016219993122;3;81;78;Ceylan & Pascucci (2023);Experiment 2;Orientation;1
3;144;137;-7;1.64873409993015;3;25;79;Ceylan & Pascucci (2023);Experiment 2;Orientation;1
3;45;51;6;2.13313500001095;3;-81;80;Ceylan & Pascucci (2023);Experiment 2;Orientation;1
3;78;86;8;2.93261499982327;3;-33;81;Ceylan & Pascucci (2023);Experiment 2;Orientation;1
3;28;33;5;2.21540579991415;3;50;82;Ceylan & Pascucci (2023);Experiment 2;Orientation;1
3;110;113;3;2.31681580003351;3;-82;83;Ceylan & Pascucci (2023);Experiment 2;Orientation;1
3;77;79;2;3.06673989980482;3;33;84;Ceylan & Pascucci (2023);Experiment 2;Orientation;1
3;158;165;7;1.93289980012923;3;-81;85;Ceylan & Pascucci (2023);Experiment 2;Orientation;1
3;162;164;2;4.14060320006683;3;-4;86;Ceylan & Pascucci (2023);Experiment 2;Orientation;1
3;96;99;3;2.73246259987354;3;66;87;Ceylan & Pascucci (2023);Experiment 2;Orientation;1
3;42;43;1;1.47540340013802;3;54;88;Ceylan & Pascucci (2023);Experiment 2;Orientation;1
3;157;162;5;3.47514989995398;3;65;89;Ceylan & Pascucci (2023);Experiment 2;Orientation;1
3;20;20;0;4.42456330009736;3;-43;90;Ceylan & Pascucci (2023);Experiment 2;Orientation;1
3;89;84;-5;1.44096849998459;4;-69;91;Ceylan & Pascucci (2023);Experiment 2;Orientation;1
3;5;3;-2;2.14979150006548;4;84;92;Ceylan & Pascucci (2023);Experiment 2;Orientation;1
3;130;122;-8;1.47480350011028;4;55;93;Ceylan & Pascucci (2023);Experiment 2;Orientation;1
3;66;73;7;2.94879449997097;4;64;94;Ceylan & Pascucci (2023);Experiment 2;Orientation;1
3;29;41;12;0.991541299968958;4;37;95;Ceylan & Pascucci (2023);Experiment 2;Orientation;1
3;2;2;0;2.75861649983563;4;27;96;Ceylan & Pascucci (2023);Experiment 2;Orientation;1
3;29;32;3;1.33358940016478;4;-27;97;Ceylan & Pascucci (2023);Experiment 2;Orientation;1
3;24;17;-7;3.18346780003048;4;5;98;Ceylan & Pascucci (2023);Experiment 2;Orientation;1
3;41;53;12;2.15019559999928;4;-17;99;Ceylan & Pascucci (2023);Experiment 2;Orientation;1
3;56;67;11;1.84937930013984;4;-15;100;Ceylan & Pascucci (2023);Experiment 2;Orientation;1
3;48;63;15;1.86589390016161;4;8;101;Ceylan & Pascucci (2023);Experiment 2;Orientation;1
3;73;78;5;1.85013810009696;4;-25;102;Ceylan & Pascucci (2023);Experiment 2;Orientation;1
3;98;102;4;1.49903210019693;4;-25;103;Ceylan & Pascucci (2023);Experiment 2;Orientation;1
3;83;81;-2;1.64174760016613;4;15;104;Ceylan & Pascucci (2023);Experiment 2;Orientation;1
3;28;21;-7;2.74882000009529;4;55;105;Ceylan & Pascucci (2023);Experiment 2;Orientation;1
3;67;70;3;1.24197390000336;4;-39;106;Ceylan & Pascucci (2023);Experiment 2;Orientation;1
3;50;48;-2;1.62504529999569;4;17;107;Ceylan & Pascucci (2023);Experiment 2;Orientation;1
3;114;107;-7;1.97456620004959;4;-64;108;Ceylan & Pascucci (2023);Experiment 2;Orientation;1
3;79;85;6;2.33354869997129;4;35;109;Ceylan & Pascucci (2023);Experiment 2;Orientation;1
3;61;64;3;1.34987070015632;4;18;110;Ceylan & Pascucci (2023);Experiment 2;Orientation;1
3;74;76;2;1.48324039997533;4;-13;111;Ceylan & Pascucci (2023);Experiment 2;Orientation;1
3;98;112;14;1.01666689990088;4;-24;112;Ceylan & Pascucci (2023);Experiment 2;Orientation;1
3;52;61;9;1.40020149992779;4;46;113;Ceylan & Pascucci (2023);Experiment 2;Orientation;1
3;64;43;-21;4.31530030001886;4;-12;114;Ceylan & Pascucci (2023);Experiment 2;Orientation;1
3;10;23;13;1.46689789998345;4;54;115;Ceylan & Pascucci (2023);Experiment 2;Orientation;1
3;5;16;11;2.24852279992774;4;5;116;Ceylan & Pascucci (2023);Experiment 2;Orientation;1
3;42;47;5;1.43356600007974;4;-37;117;Ceylan & Pascucci (2023);Experiment 2;Orientation;1
3;25;78;53;1.19152110000141;4;17;118;Ceylan & Pascucci (2023);Experiment 2;Orientation;1
3;117;104;-13;1.66662939987145;4;88;119;Ceylan & Pascucci (2023);Experiment 2;Orientation;1
3;130;109;-21;2.96631049993448;4;-13;120;Ceylan & Pascucci (2023);Experiment 2;Orientation;1
3;105;106;1;1.80028149997815;5;25;121;Ceylan & Pascucci (2023);Experiment 2;Orientation;1
3;98;101;3;2.15012950007804;5;7;122;Ceylan & Pascucci (2023);Experiment 2;Orientation;1
3;52;50;-2;1.16652649990283;5;46;123;Ceylan & Pascucci (2023);Experiment 2;Orientation;1
3;21;18;-3;1.10805479995906;5;31;124;Ceylan & Pascucci (2023);Experiment 2;Orientation;1
3;14;20;6;1.00032530003227;5;7;125;Ceylan & Pascucci (2023);Experiment 2;Orientation;1
3;109;110;1;0.916571500012651;5;85;126;Ceylan & Pascucci (2023);Experiment 2;Orientation;1
3;29;40;11;1.50861330004409;5;80;127;Ceylan & Pascucci (2023);Experiment 2;Orientation;1
3;9;25;16;1.94183350005187;5;20;128;Ceylan & Pascucci (2023);Experiment 2;Orientation;1
3;2;162;-20;3.12460670014843;5;7;129;Ceylan & Pascucci (2023);Experiment 2;Orientation;1
3;11;16;5;2.79084599995986;5;-9;130;Ceylan & Pascucci (2023);Experiment 2;Orientation;1
3;62;60;-2;2.85030890000053;5;-51;131;Ceylan & Pascucci (2023);Experiment 2;Orientation;1
3;90;87;-3;2.04188789986074;5;-28;132;Ceylan & Pascucci (2023);Experiment 2;Orientation;1
3;124;118;-6;2.78315899986774;5;-34;133;Ceylan & Pascucci (2023);Experiment 2;Orientation;1
3;140;132;-8;1.8335923999548;5;-16;134;Ceylan & Pascucci (2023);Experiment 2;Orientation;1
3;97;99;2;1.77520440006629;5;43;135;Ceylan & Pascucci (2023);Experiment 2;Orientation;1
3;142;134;-8;2.0742317000404;5;-45;136;Ceylan & Pascucci (2023);Experiment 2;Orientation;1
3;110;115;5;1.79980090004392;5;32;137;Ceylan & Pascucci (2023);Experiment 2;Orientation;1
3;4;3;-1;6.18298189993948;5;-74;138;Ceylan & Pascucci (2023);Experiment 2;Orientation;1
3;138;162;24;2.49144740006886;5;46;139;Ceylan & Pascucci (2023);Experiment 2;Orientation;1
3;148;140;-8;1.50803659996018;5;-10;140;Ceylan & Pascucci (2023);Experiment 2;Orientation;1
3;24;45;21;1.10725730005652;5;-56;141;Ceylan & Pascucci (2023);Experiment 2;Orientation;1
3;32;52;20;2.28425940009765;5;-8;142;Ceylan & Pascucci (2023);Experiment 2;Orientation;1
3;165;171;6;1.49173570005223;5;47;143;Ceylan & Pascucci (2023);Experiment 2;Orientation;1
3;79;80;1;1.52534539997578;5;86;144;Ceylan & Pascucci (2023);Experiment 2;Orientation;1
3;107;75;-32;2.23223480000161;5;-28;145;Ceylan & Pascucci (2023);Experiment 2;Orientation;1
3;27;40;13;1.6170196000021;5;80;146;Ceylan & Pascucci (2023);Experiment 2;Orientation;1
3;10;44;34;1.39246809994802;5;17;147;Ceylan & Pascucci (2023);Experiment 2;Orientation;1
3;163;161;-2;2.38356350013055;5;27;148;Ceylan & Pascucci (2023);Experiment 2;Orientation;1
3;86;80;-6;3.67454749997705;5;77;149;Ceylan & Pascucci (2023);Experiment 2;Orientation;1
3;172;174;2;3.26627069991082;5;-86;150;Ceylan & Pascucci (2023);Experiment 2;Orientation;1
3;96;96;0;1.24986979993992;6;76;151;Ceylan & Pascucci (2023);Experiment 2;Orientation;1
3;29;26;-3;1.87369170016609;6;67;152;Ceylan & Pascucci (2023);Experiment 2;Orientation;1
3;152;149;-3;1.42350789997727;6;57;153;Ceylan & Pascucci (2023);Experiment 2;Orientation;1
3;172;173;1;1.13367140013725;6;-20;154;Ceylan & Pascucci (2023);Experiment 2;Orientation;1
3;62;70;8;1.99187469994649;6;-70;155;Ceylan & Pascucci (2023);Experiment 2;Orientation;1
3;38;42;4;1.35023119999096;6;24;156;Ceylan & Pascucci (2023);Experiment 2;Orientation;1
3;162;138;-24;2.14177109999582;6;56;157;Ceylan & Pascucci (2023);Experiment 2;Orientation;1
3;31;49;18;2.02427809988149;6;-49;158;Ceylan & Pascucci (2023);Experiment 2;Orientation;1
3;76;85;9;2.6251282999292;6;-45;159;Ceylan & Pascucci (2023);Experiment 2;Orientation;1
3;102;98;-4;1.55760499997996;6;-26;160;Ceylan & Pascucci (2023);Experiment 2;Orientation;1
3;68;81;13;2.62485060002655;6;34;161;Ceylan & Pascucci (2023);Experiment 2;Orientation;1
3;58;51;-7;1.52498190011829;6;10;162;Ceylan & Pascucci (2023);Experiment 2;Orientation;1
3;124;114;-10;2.69963309983723;6;-66;163;Ceylan & Pascucci (2023);Experiment 2;Orientation;1
3;70;75;5;2.94172730017453;6;54;164;Ceylan & Pascucci (2023);Experiment 2;Orientation;1
3;164;161;-3;2.96644059987739;6;86;165;Ceylan & Pascucci (2023);Experiment 2;Orientation;1
3;138;136;-2;3.52502839989029;6;26;166;Ceylan & Pascucci (2023);Experiment 2;Orientation;1
3;179;2;3;2.82512270007282;6;-41;167;Ceylan & Pascucci (2023);Experiment 2;Orientation;1
3;43;39;-4;1.10002439981326;6;-44;168;Ceylan & Pascucci (2023);Experiment 2;Orientation;1
3;78;66;-12;1.32481230003759;6;-35;169;Ceylan & Pascucci (2023);Experiment 2;Orientation;1
3;77;71;-6;0.983401600038633;6;1;170;Ceylan & Pascucci (2023);Experiment 2;Orientation;1
3;2;174;-8;3.3746660000179;6;75;171;Ceylan & Pascucci (2023);Experiment 2;Orientation;1
3;33;33;0;1.04985180008225;6;-31;172;Ceylan & Pascucci (2023);Experiment 2;Orientation;1
3;22;30;8;1.72509839991108;6;11;173;Ceylan & Pascucci (2023);Experiment 2;Orientation;1
3;14;20;6;3.85690070013516;6;8;174;Ceylan & Pascucci (2023);Experiment 2;Orientation;1
3;83;79;-4;1.00851980014704;6;-69;175;Ceylan & Pascucci (2023);Experiment 2;Orientation;1
3;97;101;4;1.7418416000437;6;-14;176;Ceylan & Pascucci (2023);Experiment 2;Orientation;1
3;44;50;6;1.7998096998781;6;53;177;Ceylan & Pascucci (2023);Experiment 2;Orientation;1
3;95;101;6;1.49144020001404;6;-51;178;Ceylan & Pascucci (2023);Experiment 2;Orientation;1
3;175;176;1;2.80835369997658;6;-80;179;Ceylan & Pascucci (2023);Experiment 2;Orientation;1
3;151;143;-8;2.24159829993732;6;24;180;Ceylan & Pascucci (2023);Experiment 2;Orientation;1
3;11;17;6;2.24969290010631;7;-40;181;Ceylan & Pascucci (2023);Experiment 2;Orientation;1
3;168;171;3;1.22438069991767;7;23;182;Ceylan & Pascucci (2023);Experiment 2;Orientation;1
3;60;61;1;1.1835333998315;7;-72;183;Ceylan & Pascucci (2023);Experiment 2;Orientation;1
3;172;166;-6;1.62529070000164;7;68;184;Ceylan & Pascucci (2023);Experiment 2;Orientation;1
3;175;178;3;2.94136780011468;7;-3;185;Ceylan & Pascucci (2023);Experiment 2;Orientation;1
3;153;157;4;2.40804530004971;7;22;186;Ceylan & Pascucci (2023);Experiment 2;Orientation;1
3;136;128;-8;2.73338790005073;7;17;187;Ceylan & Pascucci (2023);Experiment 2;Orientation;1
3;179;179;0;3.04960770020261;7;-43;188;Ceylan & Pascucci (2023);Experiment 2;Orientation;1
3;103;107;4;1.44994560000487;7;76;189;Ceylan & Pascucci (2023);Experiment 2;Orientation;1
3;42;46;4;1.94099249993451;7;61;190;Ceylan & Pascucci (2023);Experiment 2;Orientation;1
3;97;105;8;1.04180889995769;7;-55;191;Ceylan & Pascucci (2023);Experiment 2;Orientation;1
3;31;37;6;0.599044899921864;7;66;192;Ceylan & Pascucci (2023);Experiment 2;Orientation;1
3;83;83;0;1.13349770009518;7;-52;193;Ceylan & Pascucci (2023);Experiment 2;Orientation;1
3;99;104;5;1.77521559991874;7;-16;194;Ceylan & Pascucci (2023);Experiment 2;Orientation;1
3;47;63;16;0.958547600079328;7;52;195;Ceylan & Pascucci (2023);Experiment 2;Orientation;1
3;97;97;0;1.24146960000508;7;-50;196;Ceylan & Pascucci (2023);Experiment 2;Orientation;1
3;101;107;6;0.94108649995178;7;-4;197;Ceylan & Pascucci (2023);Experiment 2;Orientation;1
3;63;65;2;1.3573860002216;7;38;198;Ceylan & Pascucci (2023);Experiment 2;Orientation;1
3;102;107;5;1.058728300035;7;-39;199;Ceylan & Pascucci (2023);Experiment 2;Orientation;1
3;55;56;1;1.10028540017083;7;47;200;Ceylan & Pascucci (2023);Experiment 2;Orientation;1
3;159;156;-3;1.05832049995661;7;76;201;Ceylan & Pascucci (2023);Experiment 2;Orientation;1
3;114;124;10;1.08335179998539;7;45;202;Ceylan & Pascucci (2023);Experiment 2;Orientation;1
3;4;173;-11;0.583435199921951;7;-70;203;Ceylan & Pascucci (2023);Experiment 2;Orientation;1
3;175;171;-4;1.10867549991235;7;9;204;Ceylan & Pascucci (2023);Experiment 2;Orientation;1
3;142;139;-3;2.79081210005097;7;33;205;Ceylan & Pascucci (2023);Experiment 2;Orientation;1
3;124;128;4;2.1501768999733;7;18;206;Ceylan & Pascucci (2023);Experiment 2;Orientation;1
3;92;93;1;1.64980200002901;7;32;207;Ceylan & Pascucci (2023);Experiment 2;Orientation;1
3;12;30;18;1.21561330021359;7;80;208;Ceylan & Pascucci (2023);Experiment 2;Orientation;1
3;40;19;-21;1.79981370014139;7;-28;209;Ceylan & Pascucci (2023);Experiment 2;Orientation;1
3;82;80;-2;1.0835659999866;7;-42;210;Ceylan & Pascucci (2023);Experiment 2;Orientation;1
3;47;52;5;1.46687799994834;8;35;211;Ceylan & Pascucci (2023);Experiment 2;Orientation;1
3;158;28;50;2.14146109996364;8;69;212;Ceylan & Pascucci (2023);Experiment 2;Orientation;1
3;47;50;3;1.25857269996777;8;-69;213;Ceylan & Pascucci (2023);Experiment 2;Orientation;1
3;87;81;-6;1.29995269980282;8;-40;214;Ceylan & Pascucci (2023);Experiment 2;Orientation;1
3;129;129;0;0.858814799925312;8;-42;215;Ceylan & Pascucci (2023);Experiment 2;Orientation;1
3;53;56;3;1.42394530004822;8;76;216;Ceylan & Pascucci (2023);Experiment 2;Orientation;1
3;25;42;17;1.10027000005357;8;28;217;Ceylan & Pascucci (2023);Experiment 2;Orientation;1
3;179;166;-13;1.06546359998174;8;26;218;Ceylan & Pascucci (2023);Experiment 2;Orientation;1
3;66;72;6;1.57476180000231;8;-67;219;Ceylan & Pascucci (2023);Experiment 2;Orientation;1
3;145;134;-11;1.05027140001766;8;-79;220;Ceylan & Pascucci (2023);Experiment 2;Orientation;1
3;14;172;-22;2.47341410000809;8;-49;221;Ceylan & Pascucci (2023);Experiment 2;Orientation;1
3;82;70;-12;1.14989489992149;8;-68;222;Ceylan & Pascucci (2023);Experiment 2;Orientation;1
3;153;135;-18;1.49053959990852;8;-71;223;Ceylan & Pascucci (2023);Experiment 2;Orientation;1
3;167;166;-1;0.991981099825352;8;-14;224;Ceylan & Pascucci (2023);Experiment 2;Orientation;1
3;35;56;21;1.11660029995255;8;-48;225;Ceylan & Pascucci (2023);Experiment 2;Orientation;1
3;173;175;2;1.05865869997069;8;42;226;Ceylan & Pascucci (2023);Experiment 2;Orientation;1
3;55;56;1;1.93321759998798;8;-62;227;Ceylan & Pascucci (2023);Experiment 2;Orientation;1
3;94;89;-5;2.03343890001997;8;-39;228;Ceylan & Pascucci (2023);Experiment 2;Orientation;1
3;179;179;0;1.90858869999647;8;-85;229;Ceylan & Pascucci (2023);Experiment 2;Orientation;1
3;150;131;-19;1.72359629999846;8;29;230;Ceylan & Pascucci (2023);Experiment 2;Orientation;1
3;84;79;-5;1.1837561998982;8;66;231;Ceylan & Pascucci (2023);Experiment 2;Orientation;1
3;126;121;-5;1.10814999998547;8;-42;232;Ceylan & Pascucci (2023);Experiment 2;Orientation;1
3;129;103;-26;2.56683460017666;8;-3;233;Ceylan & Pascucci (2023);Experiment 2;Orientation;1
3;117;111;-6;1.04077790002339;8;12;234;Ceylan & Pascucci (2023);Experiment 2;Orientation;1
3;150;131;-19;1.05039229989052;8;-33;235;Ceylan & Pascucci (2023);Experiment 2;Orientation;1
3;21;26;5;0.966483499854803;8;-51;236;Ceylan & Pascucci (2023);Experiment 2;Orientation;1
3;158;168;10;2.75805500010028;8;43;237;Ceylan & Pascucci (2023);Experiment 2;Orientation;1
3;157;163;6;1.22482710005715;8;1;238;Ceylan & Pascucci (2023);Experiment 2;Orientation;1
3;109;94;-15;1.72515990003012;8;48;239;Ceylan & Pascucci (2023);Experiment 2;Orientation;1
3;13;31;18;1.30027310014702;8;-84;240;Ceylan & Pascucci (2023);Experiment 2;Orientation;1
3;71;75;4;1.01691479980946;9;-58;241;Ceylan & Pascucci (2023);Experiment 2;Orientation;1
3;88;81;-7;1.19201230001636;9;-17;242;Ceylan & Pascucci (2023);Experiment 2;Orientation;1
3;146;79;-67;1.94989439984784;9;-58;243;Ceylan & Pascucci (2023);Experiment 2;Orientation;1
3;52;64;12;10.9658351000398;9;-86;244;Ceylan & Pascucci (2023);Experiment 2;Orientation;1
3;24;42;18;1.55862170015462;9;28;245;Ceylan & Pascucci (2023);Experiment 2;Orientation;1
3;99;107;8;0.624855999834836;9;-75;246;Ceylan & Pascucci (2023);Experiment 2;Orientation;1
3;4;5;1;1.54984109988436;9;-85;247;Ceylan & Pascucci (2023);Experiment 2;Orientation;1
3;159;151;-8;1.3909593001008;9;25;248;Ceylan & Pascucci (2023);Experiment 2;Orientation;1
3;118;110;-8;1.06709289993159;9;41;249;Ceylan & Pascucci (2023);Experiment 2;Orientation;1
3;5;11;6;0.908823100151494;9;-67;250;Ceylan & Pascucci (2023);Experiment 2;Orientation;1
3;113;112;-1;1.7915107998997;9;72;251;Ceylan & Pascucci (2023);Experiment 2;Orientation;1
3;70;69;-1;1.11702200002037;9;43;252;Ceylan & Pascucci (2023);Experiment 2;Orientation;1
3;94;93;-1;3.59063280001283;9;-24;253;Ceylan & Pascucci (2023);Experiment 2;Orientation;1
3;99;99;0;1.86561349988915;9;-5;254;Ceylan & Pascucci (2023);Experiment 2;Orientation;1
3;103;105;2;1.90764950006269;9;-4;255;Ceylan & Pascucci (2023);Experiment 2;Orientation;1
3;4;171;-13;1.7487254999578;9;-81;256;Ceylan & Pascucci (2023);Experiment 2;Orientation;1
3;33;51;18;1.01571509987116;9;-29;257;Ceylan & Pascucci (2023);Experiment 2;Orientation;1
3;19;29;10;1.39056809991598;9;14;258;Ceylan & Pascucci (2023);Experiment 2;Orientation;1
3;96;96;0;1.09218690008856;9;-77;259;Ceylan & Pascucci (2023);Experiment 2;Orientation;1
3;35;63;28;1.49985169991851;9;61;260;Ceylan & Pascucci (2023);Experiment 2;Orientation;1
3;34;53;19;1.20757240010425;9;1;261;Ceylan & Pascucci (2023);Experiment 2;Orientation;1
3;60;68;8;1.75814449996687;9;-26;262;Ceylan & Pascucci (2023);Experiment 2;Orientation;1
3;103;95;-8;1.45855640014634;9;-43;263;Ceylan & Pascucci (2023);Experiment 2;Orientation;1
3;24;37;13;1.34174229996279;9;79;264;Ceylan & Pascucci (2023);Experiment 2;Orientation;1
3;153;128;-25;1.37478459998965;9;51;265;Ceylan & Pascucci (2023);Experiment 2;Orientation;1
3;4;13;9;1.29103900003247;9;-31;266;Ceylan & Pascucci (2023);Experiment 2;Orientation;1
3;93;96;3;1.16635899990797;9;-89;267;Ceylan & Pascucci (2023);Experiment 2;Orientation;1
3;53;55;2;1.50827159988694;9;40;268;Ceylan & Pascucci (2023);Experiment 2;Orientation;1
3;176;160;-16;1.59151529986411;9;57;269;Ceylan & Pascucci (2023);Experiment 2;Orientation;1
3;8;6;-2;1.44180239993148;9;-12;270;Ceylan & Pascucci (2023);Experiment 2;Orientation;1
3;79;70;-9;0.933792700059712;10;-71;271;Ceylan & Pascucci (2023);Experiment 2;Orientation;1
3;177;173;-4;2.22518090019003;10;82;272;Ceylan & Pascucci (2023);Experiment 2;Orientation;1
3;85;14;-71;4.29864470008761;10;-88;273;Ceylan & Pascucci (2023);Experiment 2;Orientation;1
3;16;16;0;1.96540480013937;10;69;274;Ceylan & Pascucci (2023);Experiment 2;Orientation;1
3;19;29;10;3.06640230002813;10;-3;275;Ceylan & Pascucci (2023);Experiment 2;Orientation;1
3;121;111;-10;1.51680650003254;10;78;276;Ceylan & Pascucci (2023);Experiment 2;Orientation;1
3;2;9;7;2.46641480014659;10;-61;277;Ceylan & Pascucci (2023);Experiment 2;Orientation;1
3;166;161;-5;1.24166569998488;10;16;278;Ceylan & Pascucci (2023);Experiment 2;Orientation;1
3;116;117;1;1.2335220000241;10;50;279;Ceylan & Pascucci (2023);Experiment 2;Orientation;1
3;82;82;0;1.9915090999566;10;34;280;Ceylan & Pascucci (2023);Experiment 2;Orientation;1
3;5;16;11;0.966564199887216;10;77;281;Ceylan & Pascucci (2023);Experiment 2;Orientation;1
3;89;82;-7;1.49042710009962;10;-84;282;Ceylan & Pascucci (2023);Experiment 2;Orientation;1
3;84;83;-1;1.54984930017963;10;5;283;Ceylan & Pascucci (2023);Experiment 2;Orientation;1
3;19;16;-3;1.37522140005603;10;65;284;Ceylan & Pascucci (2023);Experiment 2;Orientation;1
3;6;19;13;1.04243950010277;10;13;285;Ceylan & Pascucci (2023);Experiment 2;Orientation;1
3;11;28;17;1.66594490013085;10;-5;286;Ceylan & Pascucci (2023);Experiment 2;Orientation;1
3;97;110;13;1.25850360002369;10;-86;287;Ceylan & Pascucci (2023);Experiment 2;Orientation;1
3;142;148;6;1.36702929995954;10;-45;288;Ceylan & Pascucci (2023);Experiment 2;Orientation;1
3;53;67;14;1.63317819987424;10;89;289;Ceylan & Pascucci (2023);Experiment 2;Orientation;1
3;84;85;1;1.35864440002479;10;-31;290;Ceylan & Pascucci (2023);Experiment 2;Orientation;1
3;22;49;27;0.750369499903172;10;62;291;Ceylan & Pascucci (2023);Experiment 2;Orientation;1
3;109;104;-5;1.92516919993795;10;-87;292;Ceylan & Pascucci (2023);Experiment 2;Orientation;1
3;5;18;13;1.64166849991307;10;-76;293;Ceylan & Pascucci (2023);Experiment 2;Orientation;1
3;83;83;0;2.55016599991359;10;-78;294;Ceylan & Pascucci (2023);Experiment 2;Orientation;1
3;148;146;-2;1.22528450004756;10;-65;295;Ceylan & Pascucci (2023);Experiment 2;Orientation;1
3;47;43;-4;1.64193019992672;10;-79;296;Ceylan & Pascucci (2023);Experiment 2;Orientation;1
3;67;70;3;1.70037460001186;10;-20;297;Ceylan & Pascucci (2023);Experiment 2;Orientation;1
3;52;46;-6;1.40814789989963;10;15;298;Ceylan & Pascucci (2023);Experiment 2;Orientation;1
3;82;67;-15;1.74981170007959;10;-30;299;Ceylan & Pascucci (2023);Experiment 2;Orientation;1
3;107;116;9;1.23236230015755;10;-25;300;Ceylan & Pascucci (2023);Experiment 2;Orientation;1
4;121;125;4;1.75800750008784;1;NaN;1;Ceylan & Pascucci (2023);Experiment 2;Orientation;1
4;127;127;0;1.73361709993333;1;-6;2;Ceylan & Pascucci (2023);Experiment 2;Orientation;1
4;37;45;8;1.56667540012859;1;90;3;Ceylan & Pascucci (2023);Experiment 2;Orientation;1
4;12;18;6;2.82462570001371;1;25;4;Ceylan & Pascucci (2023);Experiment 2;Orientation;1
4;120;114;-6;1.30740049993619;1;72;5;Ceylan & Pascucci (2023);Experiment 2;Orientation;1
4;170;139;-31;2.3406515000388;1;-50;6;Ceylan & Pascucci (2023);Experiment 2;Orientation;1
4;90;90;0;1.3504040997941;1;80;7;Ceylan & Pascucci (2023);Experiment 2;Orientation;1
4;45;40;-5;3.32352120010182;1;45;8;Ceylan & Pascucci (2023);Experiment 2;Orientation;1
4;20;27;7;2.11652870010585;1;25;9;Ceylan & Pascucci (2023);Experiment 2;Orientation;1
4;137;136;-1;1.70861239987426;1;63;10;Ceylan & Pascucci (2023);Experiment 2;Orientation;1
4;2;0;-2;3.29872370022349;1;-45;11;Ceylan & Pascucci (2023);Experiment 2;Orientation;1
4;114;114;0;0.967079499969259;1;68;12;Ceylan & Pascucci (2023);Experiment 2;Orientation;1
4;105;103;-2;1.49190800008364;1;9;13;Ceylan & Pascucci (2023);Experiment 2;Orientation;1
4;68;40;-28;4.0234746998176;1;37;14;Ceylan & Pascucci (2023);Experiment 2;Orientation;1
4;29;38;9;2.63314289995469;1;39;15;Ceylan & Pascucci (2023);Experiment 2;Orientation;1
4;5;19;14;2.34898360003717;1;24;16;Ceylan & Pascucci (2023);Experiment 2;Orientation;1
4;6;7;1;1.57529069995508;1;-1;17;Ceylan & Pascucci (2023);Experiment 2;Orientation;1
4;43;34;-9;1.73361329990439;1;-37;18;Ceylan & Pascucci (2023);Experiment 2;Orientation;1
4;145;126;-19;2.11655959999189;1;78;19;Ceylan & Pascucci (2023);Experiment 2;Orientation;1
4;166;155;-11;1.32490519993007;1;-21;20;Ceylan & Pascucci (2023);Experiment 2;Orientation;1
4;118;107;-11;2.58223340008408;1;48;21;Ceylan & Pascucci (2023);Experiment 2;Orientation;1
4;91;90;-1;2.04155609989539;1;27;22;Ceylan & Pascucci (2023);Experiment 2;Orientation;1
4;40;49;9;1.8165527000092;1;51;23;Ceylan & Pascucci (2023);Experiment 2;Orientation;1
4;62;68;6;2.45003860001452;1;-22;24;Ceylan & Pascucci (2023);Experiment 2;Orientation;1
4;79;76;-3;2.32529770000838;1;-17;25;Ceylan & Pascucci (2023);Experiment 2;Orientation;1
4;117;114;-3;2.00848810002208;1;-38;26;Ceylan & Pascucci (2023);Experiment 2;Orientation;1
4;96;88;-8;1.05032409983687;1;21;27;Ceylan & Pascucci (2023);Experiment 2;Orientation;1
4;172;0;8;3.56538659986109;1;-76;28;Ceylan & Pascucci (2023);Experiment 2;Orientation;1
4;9;36;27;3.0572083001025;1;-17;29;Ceylan & Pascucci (2023);Experiment 2;Orientation;1
4;35;42;7;1.25040110014379;1;-26;30;Ceylan & Pascucci (2023);Experiment 2;Orientation;1
4;69;58;-11;1.92429859982803;2;-34;31;Ceylan & Pascucci (2023);Experiment 2;Orientation;1
4;17;37;20;2.7242596000433;2;52;32;Ceylan & Pascucci (2023);Experiment 2;Orientation;1
4;94;88;-6;1.95024749985896;2;-77;33;Ceylan & Pascucci (2023);Experiment 2;Orientation;1
4;96;91;-5;3.99107689992525;2;-2;34;Ceylan & Pascucci (2023);Experiment 2;Orientation;1
4;31;35;4;1.38954059989192;2;65;35;Ceylan & Pascucci (2023);Experiment 2;Orientation;1
4;69;58;-11;1.46587719977833;2;-38;36;Ceylan & Pascucci (2023);Experiment 2;Orientation;1
4;26;30;4;4.07395639992319;2;43;37;Ceylan & Pascucci (2023);Experiment 2;Orientation;1
4;137;131;-6;1.40711149992421;2;69;38;Ceylan & Pascucci (2023);Experiment 2;Orientation;1
4;21;42;21;3.04860979993828;2;-64;39;Ceylan & Pascucci (2023);Experiment 2;Orientation;1
4;85;90;5;2.89969560015015;2;-64;40;Ceylan & Pascucci (2023);Experiment 2;Orientation;1
4;18;34;16;1.3573097998742;2;67;41;Ceylan & Pascucci (2023);Experiment 2;Orientation;1
4;57;41;-16;1.23961030016653;2;-39;42;Ceylan & Pascucci (2023);Experiment 2;Orientation;1
4;171;164;-7;2.27523729996756;2;66;43;Ceylan & Pascucci (2023);Experiment 2;Orientation;1
4;147;137;-10;3.21641559991986;2;24;44;Ceylan & Pascucci (2023);Experiment 2;Orientation;1
4;141;125;-16;1.04922250006348;2;6;45;Ceylan & Pascucci (2023);Experiment 2;Orientation;1
4;12;28;16;4.08254289999604;2;-51;46;Ceylan & Pascucci (2023);Experiment 2;Orientation;1
4;91;89;-2;2.29191039991565;2;-79;47;Ceylan & Pascucci (2023);Experiment 2;Orientation;1
4;112;108;-4;1.67380280001089;2;-21;48;Ceylan & Pascucci (2023);Experiment 2;Orientation;1
4;3;0;-3;3.90743459993973;2;-71;49;Ceylan & Pascucci (2023);Experiment 2;Orientation;1
4;9;7;-2;1.70687990006991;2;-6;50;Ceylan & Pascucci (2023);Experiment 2;Orientation;1
4;145;146;1;3.15814539999701;2;44;51;Ceylan & Pascucci (2023);Experiment 2;Orientation;1
4;170;165;-5;2.11542650009505;2;-25;52;Ceylan & Pascucci (2023);Experiment 2;Orientation;1
4;63;54;-9;1.63898970000446;2;-73;53;Ceylan & Pascucci (2023);Experiment 2;Orientation;1
4;170;157;-13;3.81596309994347;2;73;54;Ceylan & Pascucci (2023);Experiment 2;Orientation;1
4;24;38;14;1.28313679993153;2;-34;55;Ceylan & Pascucci (2023);Experiment 2;Orientation;1
4;141;134;-7;2.46614090004005;2;63;56;Ceylan & Pascucci (2023);Experiment 2;Orientation;1
4;180;1;1;3.399583700113;2;-39;57;Ceylan & Pascucci (2023);Experiment 2;Orientation;1
4;3;0;-3;2.49220529990271;2;-3;58;Ceylan & Pascucci (2023);Experiment 2;Orientation;1
4;63;51;-12;1.71768749994226;2;-60;59;Ceylan & Pascucci (2023);Experiment 2;Orientation;1
4;135;134;-1;1.1999560999684;2;-72;60;Ceylan & Pascucci (2023);Experiment 2;Orientation;1
4;92;89;-3;1.84989400021732;3;43;61;Ceylan & Pascucci (2023);Experiment 2;Orientation;1
4;162;157;-5;2.05853750021197;3;-70;62;Ceylan & Pascucci (2023);Experiment 2;Orientation;1
4;83;91;8;2.90726789995097;3;79;63;Ceylan & Pascucci (2023);Experiment 2;Orientation;1
4;3;2;-1;2.14978870004416;3;80;64;Ceylan & Pascucci (2023);Experiment 2;Orientation;1
4;130;116;-14;1.11671569989994;3;53;65;Ceylan & Pascucci (2023);Experiment 2;Orientation;1
4;81;66;-15;4.38224210008048;3;49;66;Ceylan & Pascucci (2023);Experiment 2;Orientation;1
4;117;102;-15;1.32484030001797;3;-36;67;Ceylan & Pascucci (2023);Experiment 2;Orientation;1
4;83;80;-3;1.51696460018866;3;34;68;Ceylan & Pascucci (2023);Experiment 2;Orientation;1
4;160;155;-5;2.40768399997614;3;-77;69;Ceylan & Pascucci (2023);Experiment 2;Orientation;1
4;83;88;5;1.99988189991564;3;77;70;Ceylan & Pascucci (2023);Experiment 2;Orientation;1
4;180;179;-1;1.3416290001478;3;83;71;Ceylan & Pascucci (2023);Experiment 2;Orientation;1
4;95;101;6;1.56576659996063;3;85;72;Ceylan & Pascucci (2023);Experiment 2;Orientation;1
4;77;68;-9;1.18277859990485;3;18;73;Ceylan & Pascucci (2023);Experiment 2;Orientation;1
4;27;40;13;1.68307389994152;3;50;74;Ceylan & Pascucci (2023);Experiment 2;Orientation;1
4;172;167;-5;2.77425259980373;3;35;75;Ceylan & Pascucci (2023);Experiment 2;Orientation;1
4;163;148;-15;2.06573380017653;3;9;76;Ceylan & Pascucci (2023);Experiment 2;Orientation;1
4;150;140;-10;2.54042390012182;3;13;77;Ceylan & Pascucci (2023);Experiment 2;Orientation;1
4;28;43;15;2.03220640006475;3;-58;78;Ceylan & Pascucci (2023);Experiment 2;Orientation;1
4;147;142;-5;1.51659970008768;3;61;79;Ceylan & Pascucci (2023);Experiment 2;Orientation;1
4;169;169;0;1.10032649990171;3;-22;80;Ceylan & Pascucci (2023);Experiment 2;Orientation;1
4;159;146;-13;2.31594050000422;3;10;81;Ceylan & Pascucci (2023);Experiment 2;Orientation;1
4;111;117;6;1.44140139990486;3;48;82;Ceylan & Pascucci (2023);Experiment 2;Orientation;1
4;105;107;2;1.99885969981551;3;6;83;Ceylan & Pascucci (2023);Experiment 2;Orientation;1
4;46;57;11;0.858717499999329;3;59;84;Ceylan & Pascucci (2023);Experiment 2;Orientation;1
4;104;102;-2;1.48351509985514;3;-58;85;Ceylan & Pascucci (2023);Experiment 2;Orientation;1
4;149;142;-7;1.10830840002745;3;-45;86;Ceylan & Pascucci (2023);Experiment 2;Orientation;1
4;176;0;4;1.64985699998215;3;-27;87;Ceylan & Pascucci (2023);Experiment 2;Orientation;1
4;58;49;-9;1.57404730003327;3;-62;88;Ceylan & Pascucci (2023);Experiment 2;Orientation;1
4;168;146;-22;5.54886360000819;3;70;89;Ceylan & Pascucci (2023);Experiment 2;Orientation;1
4;21;44;23;2.84037580015138;3;-33;90;Ceylan & Pascucci (2023);Experiment 2;Orientation;1
4;135;131;-4;2.70845969999209;4;66;91;Ceylan & Pascucci (2023);Experiment 2;Orientation;1
4;146;133;-13;1.43340179999359;4;-11;92;Ceylan & Pascucci (2023);Experiment 2;Orientation;1
4;40;32;-8;2.80006180005148;4;-74;93;Ceylan & Pascucci (2023);Experiment 2;Orientation;1
4;106;113;7;1.93226309982128;4;-66;94;Ceylan & Pascucci (2023);Experiment 2;Orientation;1
4;56;53;-3;1.41652259998955;4;50;95;Ceylan & Pascucci (2023);Experiment 2;Orientation;1
4;170;173;3;3.32526869978756;4;66;96;Ceylan & Pascucci (2023);Experiment 2;Orientation;1
4;108;116;8;2.46656939992681;4;62;97;Ceylan & Pascucci (2023);Experiment 2;Orientation;1
4;79;77;-2;2.14985110005364;4;29;98;Ceylan & Pascucci (2023);Experiment 2;Orientation;1
4;157;151;-6;1.38365259999409;4;-78;99;Ceylan & Pascucci (2023);Experiment 2;Orientation;1
4;107;113;6;1.67527269991115;4;50;100;Ceylan & Pascucci (2023);Experiment 2;Orientation;1
4;47;44;-3;2.83244310016744;4;60;101;Ceylan & Pascucci (2023);Experiment 2;Orientation;1
4;87;88;1;1.61538360011764;4;-40;102;Ceylan & Pascucci (2023);Experiment 2;Orientation;1
4;70;77;7;1.46660809987225;4;17;103;Ceylan & Pascucci (2023);Experiment 2;Orientation;1
4;134;131;-3;2.04150629998185;4;-64;104;Ceylan & Pascucci (2023);Experiment 2;Orientation;1
4;141;139;-2;1.43322080001235;4;-7;105;Ceylan & Pascucci (2023);Experiment 2;Orientation;1
4;138;130;-8;1.74187020002864;4;3;106;Ceylan & Pascucci (2023);Experiment 2;Orientation;1
4;154;146;-8;1.35814339993522;4;-16;107;Ceylan & Pascucci (2023);Experiment 2;Orientation;1
4;75;73;-2;1.1504716000054;4;79;108;Ceylan & Pascucci (2023);Experiment 2;Orientation;1
4;17;33;16;1.94890199997462;4;58;109;Ceylan & Pascucci (2023);Experiment 2;Orientation;1
4;14;35;21;1.90740799997002;4;3;110;Ceylan & Pascucci (2023);Experiment 2;Orientation;1
4;80;74;-6;1.43338189995848;4;-66;111;Ceylan & Pascucci (2023);Experiment 2;Orientation;1
4;10;23;13;1.56544989999384;4;70;112;Ceylan & Pascucci (2023);Experiment 2;Orientation;1
4;43;34;-9;1.19194980012253;4;-33;113;Ceylan & Pascucci (2023);Experiment 2;Orientation;1
4;169;160;-9;3.63211590005085;4;54;114;Ceylan & Pascucci (2023);Experiment 2;Orientation;1
4;153;149;-4;1.8665142999962;4;16;115;Ceylan & Pascucci (2023);Experiment 2;Orientation;1
4;47;48;1;1.8414656999521;4;-74;116;Ceylan & Pascucci (2023);Experiment 2;Orientation;1
4;120;130;10;1.44061619997956;4;-73;117;Ceylan & Pascucci (2023);Experiment 2;Orientation;1
4;5;2;-3;1.44135290011764;4;-65;118;Ceylan & Pascucci (2023);Experiment 2;Orientation;1
4;77;79;2;2.28355489997193;4;-72;119;Ceylan & Pascucci (2023);Experiment 2;Orientation;1
4;25;34;9;1.65831739990972;4;52;120;Ceylan & Pascucci (2023);Experiment 2;Orientation;1
4;147;132;-15;1.04968459997326;5;58;121;Ceylan & Pascucci (2023);Experiment 2;Orientation;1
4;17;31;14;1.24099599989131;5;-50;122;Ceylan & Pascucci (2023);Experiment 2;Orientation;1
4;118;130;12;1.35816409997642;5;79;123;Ceylan & Pascucci (2023);Experiment 2;Orientation;1
4;160;134;-26;2.00699410005473;5;-42;124;Ceylan & Pascucci (2023);Experiment 2;Orientation;1
4;20;35;15;2.18378340010531;5;-40;125;Ceylan & Pascucci (2023);Experiment 2;Orientation;1
4;122;124;2;1.78354909992777;5;78;126;Ceylan & Pascucci (2023);Experiment 2;Orientation;1
4;34;39;5;1.55000520008616;5;88;127;Ceylan & Pascucci (2023);Experiment 2;Orientation;1
4;139;137;-2;1.49155610008165;5;75;128;Ceylan & Pascucci (2023);Experiment 2;Orientation;1
4;131;139;8;1.89827509992756;5;8;129;Ceylan & Pascucci (2023);Experiment 2;Orientation;1
4;52;43;-9;1.75812010001391;5;79;130;Ceylan & Pascucci (2023);Experiment 2;Orientation;1
4;152;143;-9;2.1904794999864;5;80;131;Ceylan & Pascucci (2023);Experiment 2;Orientation;1
4;125;118;-7;2.01525140018202;5;27;132;Ceylan & Pascucci (2023);Experiment 2;Orientation;1
4;135;126;-9;1.95019390014932;5;-10;133;Ceylan & Pascucci (2023);Experiment 2;Orientation;1
4;104;95;-9;2.33219830016606;5;31;134;Ceylan & Pascucci (2023);Experiment 2;Orientation;1
4;39;42;3;1.93367589986883;5;65;135;Ceylan & Pascucci (2023);Experiment 2;Orientation;1
4;17;24;7;1.92519619991072;5;22;136;Ceylan & Pascucci (2023);Experiment 2;Orientation;1
4;29;14;-15;1.50001839990728;5;-12;137;Ceylan & Pascucci (2023);Experiment 2;Orientation;1
4;171;158;-13;3.15728639997542;5;38;138;Ceylan & Pascucci (2023);Experiment 2;Orientation;1
4;52;53;1;3.31686979997903;5;-61;139;Ceylan & Pascucci (2023);Experiment 2;Orientation;1
4;142;125;-17;1.88348779990338;5;-90;140;Ceylan & Pascucci (2023);Experiment 2;Orientation;1
4;35;39;4;2.40015989984386;5;-73;141;Ceylan & Pascucci (2023);Experiment 2;Orientation;1
4;63;51;-12;1.9831397999078;5;-28;142;Ceylan & Pascucci (2023);Experiment 2;Orientation;1
4;130;132;2;2.43342639994808;5;-67;143;Ceylan & Pascucci (2023);Experiment 2;Orientation;1
4;158;153;-5;1.21536100003868;5;-28;144;Ceylan & Pascucci (2023);Experiment 2;Orientation;1
4;130;139;9;1.23236290016212;5;28;145;Ceylan & Pascucci (2023);Experiment 2;Orientation;1
4;101;114;13;1.24970879987814;5;29;146;Ceylan & Pascucci (2023);Experiment 2;Orientation;1
4;177;179;2;1.63235639990307;5;-76;147;Ceylan & Pascucci (2023);Experiment 2;Orientation;1
4;115;107;-8;1.59156369999982;5;62;148;Ceylan & Pascucci (2023);Experiment 2;Orientation;1
4;70;61;-9;1.23367670015432;5;45;149;Ceylan & Pascucci (2023);Experiment 2;Orientation;1
4;58;59;1;1.37512640003115;5;12;150;Ceylan & Pascucci (2023);Experiment 2;Orientation;1
4;24;44;20;1.53358040004969;6;34;151;Ceylan & Pascucci (2023);Experiment 2;Orientation;1
4;36;34;-2;0.924018200021237;6;-12;152;Ceylan & Pascucci (2023);Experiment 2;Orientation;1
4;127;121;-6;1.12527090008371;6;89;153;Ceylan & Pascucci (2023);Experiment 2;Orientation;1
4;170;168;-2;1.73366989986971;6;-43;154;Ceylan & Pascucci (2023);Experiment 2;Orientation;1
4;81;78;-3;1.69947559991851;6;89;155;Ceylan & Pascucci (2023);Experiment 2;Orientation;1
4;19;30;11;1.39069129992276;6;62;156;Ceylan & Pascucci (2023);Experiment 2;Orientation;1
4;73;64;-9;1.20732569997199;6;-54;157;Ceylan & Pascucci (2023);Experiment 2;Orientation;1
4;134;131;-3;1.51576600014232;6;-61;158;Ceylan & Pascucci (2023);Experiment 2;Orientation;1
4;77;67;-10;1.08284169994295;6;57;159;Ceylan & Pascucci (2023);Experiment 2;Orientation;1
4;75;74;-1;1.04174760007299;6;2;160;Ceylan & Pascucci (2023);Experiment 2;Orientation;1
4;59;59;0;0.858632100047544;6;16;161;Ceylan & Pascucci (2023);Experiment 2;Orientation;1
4;38;33;-5;2.29933539987542;6;21;162;Ceylan & Pascucci (2023);Experiment 2;Orientation;1
4;122;115;-7;1.48225819994695;6;-84;163;Ceylan & Pascucci (2023);Experiment 2;Orientation;1
4;150;136;-14;1.18235040013678;6;-28;164;Ceylan & Pascucci (2023);Experiment 2;Orientation;1
4;48;47;-1;1.69144850014709;6;-78;165;Ceylan & Pascucci (2023);Experiment 2;Orientation;1
4;33;46;13;1.87480430002324;6;15;166;Ceylan & Pascucci (2023);Experiment 2;Orientation;1
4;4;9;5;1.02522350009531;6;29;167;Ceylan & Pascucci (2023);Experiment 2;Orientation;1
4;64;58;-6;3.64874100009911;6;-60;168;Ceylan & Pascucci (2023);Experiment 2;Orientation;1
4;61;63;2;2.0998486999888;6;3;169;Ceylan & Pascucci (2023);Experiment 2;Orientation;1
4;92;93;1;0.94098010007292;6;-31;170;Ceylan & Pascucci (2023);Experiment 2;Orientation;1
4;116;107;-9;1.09209650009871;6;-24;171;Ceylan & Pascucci (2023);Experiment 2;Orientation;1
4;161;155;-6;1.8836069998797;6;-45;172;Ceylan & Pascucci (2023);Experiment 2;Orientation;1
4;97;92;-5;1.30830650008284;6;64;173;Ceylan & Pascucci (2023);Experiment 2;Orientation;1
4;80;83;3;1.27525829989463;6;17;174;Ceylan & Pascucci (2023);Experiment 2;Orientation;1
4;120;126;6;1.06674830010161;6;-40;175;Ceylan & Pascucci (2023);Experiment 2;Orientation;1
4;106;110;4;1.07534099998884;6;14;176;Ceylan & Pascucci (2023);Experiment 2;Orientation;1
4;94;92;-2;1.2333651999943;6;12;177;Ceylan & Pascucci (2023);Experiment 2;Orientation;1
4;168;173;5;1.95028920006007;6;-74;178;Ceylan & Pascucci (2023);Experiment 2;Orientation;1
4;86;89;3;1.48362189996988;6;82;179;Ceylan & Pascucci (2023);Experiment 2;Orientation;1
4;29;31;2;1.87384309992194;6;57;180;Ceylan & Pascucci (2023);Experiment 2;Orientation;1
4;170;154;-16;1.53362879995257;7;39;181;Ceylan & Pascucci (2023);Experiment 2;Orientation;1
4;162;148;-14;3.08259690017439;7;8;182;Ceylan & Pascucci (2023);Experiment 2;Orientation;1
4;71;64;-7;1.69076219992712;7;-89;183;Ceylan & Pascucci (2023);Experiment 2;Orientation;1
4;91;91;0;2.04976510000415;7;-20;184;Ceylan & Pascucci (2023);Experiment 2;Orientation;1
4;19;33;14;1.18365329992957;7;72;185;Ceylan & Pascucci (2023);Experiment 2;Orientation;1
4;46;29;-17;2.57504040002823;7;-27;186;Ceylan & Pascucci (2023);Experiment 2;Orientation;1
4;94;88;-6;1.55828699981794;7;-48;187;Ceylan & Pascucci (2023);Experiment 2;Orientation;1
4;55;53;-2;1.48324209987186;7;39;188;Ceylan & Pascucci (2023);Experiment 2;Orientation;1
4;127;130;3;2.02406159997918;7;-72;189;Ceylan & Pascucci (2023);Experiment 2;Orientation;1
4;29;36;7;0.891867199912667;7;-82;190;Ceylan & Pascucci (2023);Experiment 2;Orientation;1
4;91;93;2;2.17535119992681;7;-62;191;Ceylan & Pascucci (2023);Experiment 2;Orientation;1
4;34;35;1;1.80854340014048;7;57;192;Ceylan & Pascucci (2023);Experiment 2;Orientation;1
4;116;120;4;1.53325460013002;7;-82;193;Ceylan & Pascucci (2023);Experiment 2;Orientation;1
4;84;94;10;1.02518290001899;7;32;194;Ceylan & Pascucci (2023);Experiment 2;Orientation;1
4;113;126;13;1.58313570008613;7;-29;195;Ceylan & Pascucci (2023);Experiment 2;Orientation;1
4;47;54;7;1.38240030012093;7;66;196;Ceylan & Pascucci (2023);Experiment 2;Orientation;1
4;85;91;6;1.74101900006644;7;-38;197;Ceylan & Pascucci (2023);Experiment 2;Orientation;1
4;94;88;-6;1.9749539999757;7;-9;198;Ceylan & Pascucci (2023);Experiment 2;Orientation;1
4;51;48;-3;1.27592030004598;7;43;199;Ceylan & Pascucci (2023);Experiment 2;Orientation;1
4;176;0;4;2.01665919995867;7;55;200;Ceylan & Pascucci (2023);Experiment 2;Orientation;1
4;94;89;-5;1.08329840004444;7;82;201;Ceylan & Pascucci (2023);Experiment 2;Orientation;1
4;83;91;8;3.15841159992851;7;11;202;Ceylan & Pascucci (2023);Experiment 2;Orientation;1
4;60;61;1;1.1838050999213;7;23;203;Ceylan & Pascucci (2023);Experiment 2;Orientation;1
4;93;92;-1;1.10832930007018;7;-33;204;Ceylan & Pascucci (2023);Experiment 2;Orientation;1
4;126;140;14;1.9248533998616;7;-33;205;Ceylan & Pascucci (2023);Experiment 2;Orientation;1
4;170;171;1;1.41574699990451;7;-44;206;Ceylan & Pascucci (2023);Experiment 2;Orientation;1
4;175;1;6;1.75814939988777;7;-5;207;Ceylan & Pascucci (2023);Experiment 2;Orientation;1
4;137;123;-14;1.3483591999393;7;38;208;Ceylan & Pascucci (2023);Experiment 2;Orientation;1
4;1;3;2;1.39178619999439;7;-44;209;Ceylan & Pascucci (2023);Experiment 2;Orientation;1
4;99;92;-7;1.96698349993676;7;82;210;Ceylan & Pascucci (2023);Experiment 2;Orientation;1
4;6;179;-7;2.39867259981111;8;-87;211;Ceylan & Pascucci (2023);Experiment 2;Orientation;1
4;12;14;2;1.44142060005106;8;-6;212;Ceylan & Pascucci (2023);Experiment 2;Orientation;1
4;156;153;-3;2.24092300003394;8;36;213;Ceylan & Pascucci (2023);Experiment 2;Orientation;1
4;107;117;10;1.3330825001467;8;49;214;Ceylan & Pascucci (2023);Experiment 2;Orientation;1
