obs;theta;resp;error;block;cond;rt;trials;delta;study;experiment;stimulus;expnum
2;100.578;97.7934;-2.78460000000001;1;1;9;1;NaN;Chetverikov & Jehee (2023);Experiment 1;Motion;1
2;227.606;233.322;5.71600000000001;1;1;9;2;-127.028;Chetverikov & Jehee (2023);Experiment 1;Motion;1
2;324.251;317.983;-6.26800000000003;1;1;9;3;-96.645;Chetverikov & Jehee (2023);Experiment 1;Motion;1
2;74.507;80.2267;5.71969999999999;1;1;9;4;-110.256;Chetverikov & Jehee (2023);Experiment 1;Motion;1
2;284.273;279.748;-4.52499999999998;1;1;9;5;150.234;Chetverikov & Jehee (2023);Experiment 1;Motion;1
2;217.823;98.1003;-119.7227;1;1;9;6;66.45;Chetverikov & Jehee (2023);Experiment 1;Motion;1
2;46.646;0.908999999999992;-45.737;1;1;9;7;171.177;Chetverikov & Jehee (2023);Experiment 1;Motion;1
2;1.727;1.90199999999999;0.174999999999926;1;1;9;8;44.919;Chetverikov & Jehee (2023);Experiment 1;Motion;1
2;352.764;356.359;3.595;1;1;9;9;8.96299999999997;Chetverikov & Jehee (2023);Experiment 1;Motion;1
2;127.6517;354.648;-133.0037;1;1;9;10;-134.8877;Chetverikov & Jehee (2023);Experiment 1;Motion;1
2;36.746;179.237684;142.491684;1;1;9;11;90.9057;Chetverikov & Jehee (2023);Experiment 1;Motion;1
2;257.239;266.251;9.01199999999997;1;1;9;12;139.507;Chetverikov & Jehee (2023);Experiment 1;Motion;1
2;89.0176;93.3444;4.32679999999999;1;1;9;13;168.2214;Chetverikov & Jehee (2023);Experiment 1;Motion;1
2;265.654;266.2;0.545999999999992;1;1;9;14;-176.6364;Chetverikov & Jehee (2023);Experiment 1;Motion;1
2;313.849;316.773;2.92400000000001;1;1;9;15;-48.195;Chetverikov & Jehee (2023);Experiment 1;Motion;1
2;190.078;181.091;-8.987;1;1;9;16;123.771;Chetverikov & Jehee (2023);Experiment 1;Motion;1
2;143.2502;351.579;-151.6712;1;1;9;17;46.8278;Chetverikov & Jehee (2023);Experiment 1;Motion;1
2;161.7078;168.9463;7.23849999999999;1;1;9;18;-18.4576;Chetverikov & Jehee (2023);Experiment 1;Motion;1
2;316.112;176.6922;-139.4198;2;1;9;1;-154.4042;Chetverikov & Jehee (2023);Experiment 1;Motion;1
2;349.122;352.639;3.51699999999997;2;1;9;2;-33.01;Chetverikov & Jehee (2023);Experiment 1;Motion;1
2;151.0605;163.2625;12.202;2;1;9;3;-161.9385;Chetverikov & Jehee (2023);Experiment 1;Motion;1
2;260.139;258.75;-1.38900000000001;2;1;9;4;-109.0785;Chetverikov & Jehee (2023);Experiment 1;Motion;1
2;62.754;324.169;-98.585;2;1;9;5;-162.615;Chetverikov & Jehee (2023);Experiment 1;Motion;1
2;85.7203;87.2378;1.51749999999998;2;1;9;6;-22.9663;Chetverikov & Jehee (2023);Experiment 1;Motion;1
2;237.242;241.773;4.53100000000001;2;1;9;7;-151.5217;Chetverikov & Jehee (2023);Experiment 1;Motion;1
2;137.6144;5.89099999999999;-131.7234;2;1;9;8;99.6276;Chetverikov & Jehee (2023);Experiment 1;Motion;1
2;170.67605;172.79808;2.12203;2;1;9;9;-33.06165;Chetverikov & Jehee (2023);Experiment 1;Motion;1
2;336.611;350.347;13.736;2;1;9;10;-165.93495;Chetverikov & Jehee (2023);Experiment 1;Motion;1
2;245.864;254.286;8.42200000000003;2;1;9;11;90.747;Chetverikov & Jehee (2023);Experiment 1;Motion;1
2;36.511;7.40100000000001;-29.11;2;1;9;12;-150.647;Chetverikov & Jehee (2023);Experiment 1;Motion;1
2;116.2401;350.623;-125.6171;2;1;9;13;-79.7291;Chetverikov & Jehee (2023);Experiment 1;Motion;1
2;192.175;197.267;5.09199999999996;2;1;9;14;-75.9349;Chetverikov & Jehee (2023);Experiment 1;Motion;1
2;219.557;221.675;2.11799999999994;2;1;9;15;-27.382;Chetverikov & Jehee (2023);Experiment 1;Motion;1
2;51.12;67.594;16.474;2;1;9;16;168.437;Chetverikov & Jehee (2023);Experiment 1;Motion;1
2;294.519;282.125;-12.394;2;1;9;17;116.601;Chetverikov & Jehee (2023);Experiment 1;Motion;1
2;0.614000000000004;358.662;-1.952;2;1;9;18;-66.095;Chetverikov & Jehee (2023);Experiment 1;Motion;1
2;316.931;310.378;-6.55300000000005;3;1;9;1;43.683;Chetverikov & Jehee (2023);Experiment 1;Motion;1
2;130.7621;124.2481;-6.51399999999998;3;1;9;2;-173.8311;Chetverikov & Jehee (2023);Experiment 1;Motion;1
2;265.752;266.226;0.47399999999999;3;1;9;3;-134.9899;Chetverikov & Jehee (2023);Experiment 1;Motion;1
2;54.842;206.978;152.136;3;1;9;4;-149.09;Chetverikov & Jehee (2023);Experiment 1;Motion;1
2;171.16252;173.56354;2.40101999999999;3;1;9;5;-116.32052;Chetverikov & Jehee (2023);Experiment 1;Motion;1
2;232.346;239.218;6.87200000000001;3;1;9;6;-61.18348;Chetverikov & Jehee (2023);Experiment 1;Motion;1
2;85.3708;85.8468;0.475999999999999;3;1;9;7;146.9752;Chetverikov & Jehee (2023);Experiment 1;Motion;1
2;282.169;275.538;-6.63099999999992;3;1;9;8;163.2018;Chetverikov & Jehee (2023);Experiment 1;Motion;1
2;254.666;265.355;10.689;3;1;9;9;27.503;Chetverikov & Jehee (2023);Experiment 1;Motion;1
2;67.109;263.09;-164.019;3;1;9;10;-172.443;Chetverikov & Jehee (2023);Experiment 1;Motion;1
2;3.244;4.08699999999999;0.842999999999961;3;1;9;11;63.865;Chetverikov & Jehee (2023);Experiment 1;Motion;1
2;320.641;299.06;-21.581;3;1;9;12;42.6030000000001;Chetverikov & Jehee (2023);Experiment 1;Motion;1
2;347.562;334.44;-13.122;3;1;9;13;-26.921;Chetverikov & Jehee (2023);Experiment 1;Motion;1
2;154.2368;6.584;-147.6528;3;1;9;14;-166.6748;Chetverikov & Jehee (2023);Experiment 1;Motion;1
2;30.905;40.346;9.44099999999997;3;1;9;15;123.3318;Chetverikov & Jehee (2023);Experiment 1;Motion;1
2;211.207;211.451;0.244000000000028;3;1;9;16;179.698;Chetverikov & Jehee (2023);Experiment 1;Motion;1
2;109.5319;271.869;162.3371;3;1;9;17;101.6751;Chetverikov & Jehee (2023);Experiment 1;Motion;1
2;188.979;189.652;0.673000000000002;3;1;9;18;-79.4471;Chetverikov & Jehee (2023);Experiment 1;Motion;1
2;251.483;259.55;8.06700000000001;4;1;9;1;-62.504;Chetverikov & Jehee (2023);Experiment 1;Motion;1
2;1.84200000000001;357.15;-4.69200000000001;4;1;9;2;-110.359;Chetverikov & Jehee (2023);Experiment 1;Motion;1
2;76.242;85.2211;8.97910000000002;4;1;9;3;-74.4;Chetverikov & Jehee (2023);Experiment 1;Motion;1
2;113.3491;281.381;168.0319;4;1;9;4;-37.1071;Chetverikov & Jehee (2023);Experiment 1;Motion;1
2;178.5488;180.263;1.71420000000001;4;1;9;5;-65.1997;Chetverikov & Jehee (2023);Experiment 1;Motion;1
2;305.977;287.633;-18.344;4;1;9;6;-127.4282;Chetverikov & Jehee (2023);Experiment 1;Motion;1
2;192.906;203.554;10.648;4;1;9;7;113.071;Chetverikov & Jehee (2023);Experiment 1;Motion;1
2;323.999;147.2829;-176.7161;4;1;9;8;-131.093;Chetverikov & Jehee (2023);Experiment 1;Motion;1
2;273.236;276.984;3.74800000000005;4;1;9;9;50.763;Chetverikov & Jehee (2023);Experiment 1;Motion;1
2;218.403;216.672;-1.73099999999997;4;1;9;10;54.833;Chetverikov & Jehee (2023);Experiment 1;Motion;1
2;142.9576;150.4923;7.53469999999999;4;1;9;11;75.4454;Chetverikov & Jehee (2023);Experiment 1;Motion;1
2;237.723;250.877;13.154;4;1;9;12;-94.7654000000001;Chetverikov & Jehee (2023);Experiment 1;Motion;1
2;82.8123;81.5403;-1.27199999999999;4;1;9;13;154.9107;Chetverikov & Jehee (2023);Experiment 1;Motion;1
2;41.664;45.306;3.64200000000002;4;1;9;14;41.1483;Chetverikov & Jehee (2023);Experiment 1;Motion;1
2;133.8401;313.096;179.2559;4;1;9;15;-92.1761;Chetverikov & Jehee (2023);Experiment 1;Motion;1
2;290.013;283.494;-6.51900000000001;4;1;9;16;-156.1729;Chetverikov & Jehee (2023);Experiment 1;Motion;1
2;342.801;337.288;-5.51299999999998;4;1;9;17;-52.788;Chetverikov & Jehee (2023);Experiment 1;Motion;1
2;34.245;74.64;40.395;4;1;9;18;-51.444;Chetverikov & Jehee (2023);Experiment 1;Motion;1
2;210.926;211.368;0.44199999999995;5;1;9;1;-176.681;Chetverikov & Jehee (2023);Experiment 1;Motion;1
2;114.3101;283.091;168.7809;5;1;9;2;96.6159;Chetverikov & Jehee (2023);Experiment 1;Motion;1
2;14.287;22.153;7.86599999999999;5;1;9;3;100.0231;Chetverikov & Jehee (2023);Experiment 1;Motion;1
2;356.495;354.851;-1.64400000000001;5;1;9;4;17.792;Chetverikov & Jehee (2023);Experiment 1;Motion;1
2;257.596;261.525;3.92899999999997;5;1;9;5;98.899;Chetverikov & Jehee (2023);Experiment 1;Motion;1
2;310.431;286.672;-23.759;5;1;9;6;-52.835;Chetverikov & Jehee (2023);Experiment 1;Motion;1
2;192.7;206.286;13.586;5;1;9;7;117.731;Chetverikov & Jehee (2023);Experiment 1;Motion;1
2;227.734;232.915;5.18100000000004;5;1;9;8;-35.034;Chetverikov & Jehee (2023);Experiment 1;Motion;1
2;333.746;336.512;2.76599999999999;5;1;9;9;-106.012;Chetverikov & Jehee (2023);Experiment 1;Motion;1
2;288.124;280.181;-7.94299999999998;5;1;9;10;45.622;Chetverikov & Jehee (2023);Experiment 1;Motion;1
2;36.112;30.836;-5.27599999999998;5;1;9;11;-107.988;Chetverikov & Jehee (2023);Experiment 1;Motion;1
2;71.439;269.535;-161.904;5;1;9;12;-35.327;Chetverikov & Jehee (2023);Experiment 1;Motion;1
2;168.8479;160.8197;-8.0282;5;1;9;13;-97.4089;Chetverikov & Jehee (2023);Experiment 1;Motion;1
2;264.183;267.541;3.35800000000003;5;1;9;14;-95.3351;Chetverikov & Jehee (2023);Experiment 1;Motion;1
2;85.4525;90.3691;4.91660000000002;5;1;9;15;178.7305;Chetverikov & Jehee (2023);Experiment 1;Motion;1
2;139.7551;1.85300000000001;-137.9021;5;1;9;16;-54.3026;Chetverikov & Jehee (2023);Experiment 1;Motion;1
2;44.428;182.856;138.428;5;1;9;17;95.3271;Chetverikov & Jehee (2023);Experiment 1;Motion;1
2;151.8984;155.9317;4.0333;5;1;9;18;-107.4704;Chetverikov & Jehee (2023);Experiment 1;Motion;1
2;202.242;189.604;-12.6380000000001;6;1;9;1;-50.3436;Chetverikov & Jehee (2023);Experiment 1;Motion;1
2;122.9263;99.1421;-23.7842;6;1;9;2;79.3157;Chetverikov & Jehee (2023);Experiment 1;Motion;1
2;59.267;65.008;5.74100000000001;6;1;9;3;63.6593;Chetverikov & Jehee (2023);Experiment 1;Motion;1
2;259.933;259.751;-0.182000000000073;6;1;9;4;159.334;Chetverikov & Jehee (2023);Experiment 1;Motion;1
2;17.552;12.94;-4.612;6;1;9;5;-117.619;Chetverikov & Jehee (2023);Experiment 1;Motion;1
2;118.7873;111.2014;-7.58589999999998;6;1;9;6;-101.2353;Chetverikov & Jehee (2023);Experiment 1;Motion;1
2;355.255;359.703;4.44800000000001;6;1;9;7;123.5323;Chetverikov & Jehee (2023);Experiment 1;Motion;1
2;337.363;340.24;2.87700000000004;6;1;9;8;17.892;Chetverikov & Jehee (2023);Experiment 1;Motion;1
2;38.88;262.641;-136.239;6;1;9;9;-61.517;Chetverikov & Jehee (2023);Experiment 1;Motion;1
2;192.112;200.88;8.76799999999994;6;1;9;10;-153.232;Chetverikov & Jehee (2023);Experiment 1;Motion;1
2;231.358;228.593;-2.76499999999996;6;1;9;11;-39.246;Chetverikov & Jehee (2023);Experiment 1;Motion;1
2;312.801;302.942;-9.85899999999998;6;1;9;12;-81.443;Chetverikov & Jehee (2023);Experiment 1;Motion;1
2;84.8324;93.8876;9.05520000000001;6;1;9;13;-132.0314;Chetverikov & Jehee (2023);Experiment 1;Motion;1
2;163.3494;156.1813;-7.16810000000001;6;1;9;14;-78.517;Chetverikov & Jehee (2023);Experiment 1;Motion;1
2;278.567;277.059;-1.50799999999998;6;1;9;15;-115.2176;Chetverikov & Jehee (2023);Experiment 1;Motion;1
2;151.634;157.3108;5.67680000000001;6;1;9;16;126.933;Chetverikov & Jehee (2023);Experiment 1;Motion;1
2;71.905;79.859;7.95400000000001;6;1;9;17;79.729;Chetverikov & Jehee (2023);Experiment 1;Motion;1
2;294.607;282.106;-12.501;6;1;9;18;137.298;Chetverikov & Jehee (2023);Experiment 1;Motion;1
2;51.817;55.089;3.27199999999999;7;1;9;1;-117.21;Chetverikov & Jehee (2023);Experiment 1;Motion;1
2;358.91;358.86;-0.049999999999983;7;1;9;2;52.907;Chetverikov & Jehee (2023);Experiment 1;Motion;1
2;173.43599;177.31732;3.88132999999999;7;1;9;3;-174.52599;Chetverikov & Jehee (2023);Experiment 1;Motion;1
2;156.3054;159.8822;3.57679999999999;7;1;9;4;17.13059;Chetverikov & Jehee (2023);Experiment 1;Motion;1
2;6.91499999999999;12.362;5.44699999999997;7;1;9;5;149.3904;Chetverikov & Jehee (2023);Experiment 1;Motion;1
2;206.675;210.576;3.90100000000004;7;1;9;6;160.24;Chetverikov & Jehee (2023);Experiment 1;Motion;1
2;113.719;105.0989;-8.62009999999998;7;1;9;7;92.956;Chetverikov & Jehee (2023);Experiment 1;Motion;1
2;324.819;314.033;-10.786;7;1;9;8;148.9;Chetverikov & Jehee (2023);Experiment 1;Motion;1
2;60.79;40.925;-19.865;7;1;9;9;-95.9710000000001;Chetverikov & Jehee (2023);Experiment 1;Motion;1
2;26.691;199.223;172.532;7;1;9;10;34.099;Chetverikov & Jehee (2023);Experiment 1;Motion;1
2;199.044;203.049;4.00499999999997;7;1;9;11;-172.353;Chetverikov & Jehee (2023);Experiment 1;Motion;1
2;284.368;279.898;-4.46999999999997;7;1;9;12;-85.324;Chetverikov & Jehee (2023);Experiment 1;Motion;1
2;241.162;267.584;26.422;7;1;9;13;43.206;Chetverikov & Jehee (2023);Experiment 1;Motion;1
2;239.243;249.271;10.028;7;1;9;14;1.91900000000001;Chetverikov & Jehee (2023);Experiment 1;Motion;1
2;311.358;318.731;7.37299999999996;7;1;9;15;-72.115;Chetverikov & Jehee (2023);Experiment 1;Motion;1
2;89.6202;93.3438;3.7236;7;1;9;16;-138.2622;Chetverikov & Jehee (2023);Experiment 1;Motion;1
2;267.895;270.44;2.54500000000002;7;1;9;17;-178.2748;Chetverikov & Jehee (2023);Experiment 1;Motion;1
2;131.6012;126.5717;-5.02949999999999;7;1;9;18;136.2938;Chetverikov & Jehee (2023);Experiment 1;Motion;1
2;30.346;197.202;166.856;8;1;9;1;101.2552;Chetverikov & Jehee (2023);Experiment 1;Motion;1
2;86.0459;88.306;2.26009999999997;8;1;9;2;-55.6999;Chetverikov & Jehee (2023);Experiment 1;Motion;1
2;341.594;334.697;-6.89699999999996;8;1;9;3;104.4519;Chetverikov & Jehee (2023);Experiment 1;Motion;1
2;334.363;329.639;-4.72399999999996;8;1;9;4;7.23099999999999;Chetverikov & Jehee (2023);Experiment 1;Motion;1
2;141.7357;151.2043;9.46859999999998;8;1;9;5;-167.3727;Chetverikov & Jehee (2023);Experiment 1;Motion;1
2;207.883;204.051;-3.83199999999999;8;1;9;6;-66.1473;Chetverikov & Jehee (2023);Experiment 1;Motion;1
2;280.842;277.15;-3.69200000000001;8;1;9;7;-72.959;Chetverikov & Jehee (2023);Experiment 1;Motion;1
2;115.4312;96.8412;-18.59;8;1;9;8;165.4108;Chetverikov & Jehee (2023);Experiment 1;Motion;1
2;270.782;271.017;0.235000000000014;8;1;9;9;-155.3508;Chetverikov & Jehee (2023);Experiment 1;Motion;1
2;133.9549;143.748;9.79310000000001;8;1;9;10;136.8271;Chetverikov & Jehee (2023);Experiment 1;Motion;1
2;319.064;316.749;-2.315;8;1;9;11;174.8909;Chetverikov & Jehee (2023);Experiment 1;Motion;1
2;244.41;258.106;13.696;8;1;9;12;74.654;Chetverikov & Jehee (2023);Experiment 1;Motion;1
2;164.4493;162.869;-1.58029999999999;8;1;9;13;79.9607;Chetverikov & Jehee (2023);Experiment 1;Motion;1
2;69.681;82.1212;12.4402;8;1;9;14;94.7683;Chetverikov & Jehee (2023);Experiment 1;Motion;1
2;5.93799999999999;2.13900000000001;-3.79899999999998;8;1;9;15;63.743;Chetverikov & Jehee (2023);Experiment 1;Motion;1
2;54.239;180.594;126.355;8;1;9;16;-48.301;Chetverikov & Jehee (2023);Experiment 1;Motion;1
2;183.673;184.521;0.848000000000042;8;1;9;17;-129.434;Chetverikov & Jehee (2023);Experiment 1;Motion;1
2;232.506;257.01;24.504;8;1;9;18;-48.833;Chetverikov & Jehee (2023);Experiment 1;Motion;1
2;79.099;352.341;-86.758;9;1;9;1;153.407;Chetverikov & Jehee (2023);Experiment 1;Motion;1
2;35.939;41.42;5.481;9;1;9;2;43.16;Chetverikov & Jehee (2023);Experiment 1;Motion;1
2;202.838;210.135;7.29699999999994;9;1;9;3;-166.899;Chetverikov & Jehee (2023);Experiment 1;Motion;1
2;91.3179;91.3956;0.0777000000000214;9;1;9;4;111.5201;Chetverikov & Jehee (2023);Experiment 1;Motion;1
2;168.8826;163.9811;-4.9015;9;1;9;5;-77.5647;Chetverikov & Jehee (2023);Experiment 1;Motion;1
2;2.30000000000001;3.988;1.68799999999999;9;1;9;6;166.5826;Chetverikov & Jehee (2023);Experiment 1;Motion;1
2;241.732;256.719;14.987;9;1;9;7;120.568;Chetverikov & Jehee (2023);Experiment 1;Motion;1
2;348.693;354.021;5.32799999999995;9;1;9;8;-106.961;Chetverikov & Jehee (2023);Experiment 1;Motion;1
2;286.166;277.28;-8.88600000000002;9;1;9;9;62.527;Chetverikov & Jehee (2023);Experiment 1;Motion;1
2;222.799;185.813;-36.9859999999999;9;1;9;10;63.367;Chetverikov & Jehee (2023);Experiment 1;Motion;1
2;270.886;271.052;0.165999999999997;9;1;9;11;-48.087;Chetverikov & Jehee (2023);Experiment 1;Motion;1
2;43.095;242.305;-160.79;9;1;9;12;-132.209;Chetverikov & Jehee (2023);Experiment 1;Motion;1
2;199.435;184.882;-14.553;9;1;9;13;-156.34;Chetverikov & Jehee (2023);Experiment 1;Motion;1
2;332.711;324.411;-8.30000000000004;9;1;9;14;-133.276;Chetverikov & Jehee (2023);Experiment 1;Motion;1
2;149.3671;146.8251;-2.542;9;1;9;15;-176.6561;Chetverikov & Jehee (2023);Experiment 1;Motion;1
2;319.087;316.14;-2.947;9;1;9;16;-169.7199;Chetverikov & Jehee (2023);Experiment 1;Motion;1
2;110.9854;356.507;-114.4784;9;1;9;17;-151.8984;Chetverikov & Jehee (2023);Experiment 1;Motion;1
2;134.0301;359.489;-134.5411;9;1;9;18;-23.0447;Chetverikov & Jehee (2023);Experiment 1;Motion;1
2;274.985;272.068;-2.91700000000003;10;1;9;1;-140.9549;Chetverikov & Jehee (2023);Experiment 1;Motion;1
2;79.366;77.742;-1.624;10;1;9;2;-164.381;Chetverikov & Jehee (2023);Experiment 1;Motion;1
2;98.3546;2.38499999999999;-95.9696;10;1;9;3;-18.9886;Chetverikov & Jehee (2023);Experiment 1;Motion;1
2;121.2532;353.519;-127.7342;10;1;9;4;-22.8986;Chetverikov & Jehee (2023);Experiment 1;Motion;1
2;147.9368;152.4051;4.4683;10;1;9;5;-26.6836;Chetverikov & Jehee (2023);Experiment 1;Motion;1
2;238.829;241.433;2.60400000000004;10;1;9;6;-90.8922;Chetverikov & Jehee (2023);Experiment 1;Motion;1
2;242.68;249.562;6.88200000000001;10;1;9;7;-3.851;Chetverikov & Jehee (2023);Experiment 1;Motion;1
2;186.62;190.582;3.96199999999999;10;1;9;8;56.06;Chetverikov & Jehee (2023);Experiment 1;Motion;1
2;27.776;32.321;4.54499999999996;10;1;9;9;158.844;Chetverikov & Jehee (2023);Experiment 1;Motion;1
2;329.029;323.798;-5.231;10;1;9;10;58.747;Chetverikov & Jehee (2023);Experiment 1;Motion;1
2;352.283;352.182;-0.101000000000084;10;1;9;11;-23.254;Chetverikov & Jehee (2023);Experiment 1;Motion;1
2;107.531;358.622;-108.909;10;1;9;12;-115.248;Chetverikov & Jehee (2023);Experiment 1;Motion;1
2;317.948;316.081;-1.86699999999999;10;1;9;13;149.583;Chetverikov & Jehee (2023);Experiment 1;Motion;1
2;57.032;181.977;124.945;10;1;9;14;-99.084;Chetverikov & Jehee (2023);Experiment 1;Motion;1
2;293.413;283.558;-9.85500000000002;10;1;9;15;123.619;Chetverikov & Jehee (2023);Experiment 1;Motion;1
2;6.97999999999999;7.24199999999999;0.262;10;1;9;16;-73.567;Chetverikov & Jehee (2023);Experiment 1;Motion;1
2;216.392;220.476;4.08400000000003;10;1;9;17;150.588;Chetverikov & Jehee (2023);Experiment 1;Motion;1
2;178.88322;175.34655;-3.53666999999999;10;1;9;18;37.50878;Chetverikov & Jehee (2023);Experiment 1;Motion;1
2;278.482;273.993;-4.48900000000003;11;1;9;1;-99.59878;Chetverikov & Jehee (2023);Experiment 1;Motion;1
2;338.049;330.607;-7.44199999999998;11;1;9;2;-59.567;Chetverikov & Jehee (2023);Experiment 1;Motion;1
2;280.71;275.549;-5.161;11;1;9;3;57.339;Chetverikov & Jehee (2023);Experiment 1;Motion;1
2;16.501;26.83;10.329;11;1;9;4;-95.7910000000001;Chetverikov & Jehee (2023);Experiment 1;Motion;1
2;95.4158;94.7343;-0.681500000000028;11;1;9;5;-78.9148;Chetverikov & Jehee (2023);Experiment 1;Motion;1
2;313.515;304.985;-8.52999999999997;11;1;9;6;141.9008;Chetverikov & Jehee (2023);Experiment 1;Motion;1
2;78.308;84.4707;6.16269999999997;11;1;9;7;-124.793;Chetverikov & Jehee (2023);Experiment 1;Motion;1
2;35.638;42.321;6.68299999999999;11;1;9;8;42.67;Chetverikov & Jehee (2023);Experiment 1;Motion;1
2;208.263;208.776;0.513000000000062;11;1;9;9;-172.625;Chetverikov & Jehee (2023);Experiment 1;Motion;1
2;180.664;179.118753;-1.54524700000002;11;1;9;10;27.599;Chetverikov & Jehee (2023);Experiment 1;Motion;1
2;230.903;232.007;1.10399999999999;11;1;9;11;-50.2390000000001;Chetverikov & Jehee (2023);Experiment 1;Motion;1
2;253.501;253.086;-0.414999999999964;11;1;9;12;-22.5979999999999;Chetverikov & Jehee (2023);Experiment 1;Motion;1
2;351.124;345.914;-5.20999999999998;11;1;9;13;-97.623;Chetverikov & Jehee (2023);Experiment 1;Motion;1
2;120.1801;108.2858;-11.8943;11;1;9;14;-129.0561;Chetverikov & Jehee (2023);Experiment 1;Motion;1
2;119.4715;323.293;-156.1785;11;1;9;15;0.708600000000018;Chetverikov & Jehee (2023);Experiment 1;Motion;1
2;153.2106;145.0846;-8.12600000000001;11;1;9;16;-33.7391;Chetverikov & Jehee (2023);Experiment 1;Motion;1
2;168.1143;162.509;-5.6053;11;1;9;17;-14.9037;Chetverikov & Jehee (2023);Experiment 1;Motion;1
2;58.463;47.627;-10.836;11;1;9;18;109.6513;Chetverikov & Jehee (2023);Experiment 1;Motion;1
2;351.209;354.497;3.28799999999998;12;1;9;1;67.254;Chetverikov & Jehee (2023);Experiment 1;Motion;1
2;253.285;258.365;5.07999999999998;12;1;9;2;97.924;Chetverikov & Jehee (2023);Experiment 1;Motion;1
2;169.9584;171.68717;1.72877;12;1;9;3;83.3266;Chetverikov & Jehee (2023);Experiment 1;Motion;1
2;86.4433;87.711;1.26769999999999;12;1;9;4;83.5151;Chetverikov & Jehee (2023);Experiment 1;Motion;1
2;298.655;301.38;2.72500000000002;12;1;9;5;147.7883;Chetverikov & Jehee (2023);Experiment 1;Motion;1
2;152.0519;156.6099;4.55799999999999;12;1;9;6;146.6031;Chetverikov & Jehee (2023);Experiment 1;Motion;1
2;16.602;18.748;2.14599999999999;12;1;9;7;135.4499;Chetverikov & Jehee (2023);Experiment 1;Motion;1
2;47.278;46.763;-0.514999999999986;12;1;9;8;-30.676;Chetverikov & Jehee (2023);Experiment 1;Motion;1
2;71.338;51.267;-20.071;12;1;9;9;-24.06;Chetverikov & Jehee (2023);Experiment 1;Motion;1
2;230.813;237.182;6.36900000000003;12;1;9;10;-159.475;Chetverikov & Jehee (2023);Experiment 1;Motion;1
2;125.8055;121.3054;-4.5001;12;1;9;11;105.0075;Chetverikov & Jehee (2023);Experiment 1;Motion;1
2;100.5585;104.4906;3.93209999999999;12;1;9;12;25.247;Chetverikov & Jehee (2023);Experiment 1;Motion;1
2;213.663;206.267;-7.39600000000007;12;1;9;13;-113.1045;Chetverikov & Jehee (2023);Experiment 1;Motion;1
2;326.966;325.124;-1.84200000000004;12;1;9;14;-113.303;Chetverikov & Jehee (2023);Experiment 1;Motion;1
2;23.619;30.503;6.88399999999999;12;1;9;15;-56.653;Chetverikov & Jehee (2023);Experiment 1;Motion;1
2;265.672;268.422;2.74999999999997;12;1;9;16;117.947;Chetverikov & Jehee (2023);Experiment 1;Motion;1
2;317.444;315.641;-1.803;12;1;9;17;-51.7719999999999;Chetverikov & Jehee (2023);Experiment 1;Motion;1
2;191.719;193.15;1.43100000000001;12;1;9;18;125.725;Chetverikov & Jehee (2023);Experiment 1;Motion;1
2;101.1862;273.134;171.9478;13;1;9;1;90.5328;Chetverikov & Jehee (2023);Experiment 1;Motion;1
2;343.318;337.25;-6.06800000000001;13;1;9;2;117.8682;Chetverikov & Jehee (2023);Experiment 1;Motion;1
2;3.07900000000001;356.37;-6.70899999999995;13;1;9;3;-19.761;Chetverikov & Jehee (2023);Experiment 1;Motion;1
2;153.275;152.2408;-1.0342;13;1;9;4;-150.196;Chetverikov & Jehee (2023);Experiment 1;Motion;1
2;307.141;302.903;-4.23800000000003;13;1;9;5;-153.866;Chetverikov & Jehee (2023);Experiment 1;Motion;1
2;242.415;245.018;2.60299999999995;13;1;9;6;64.726;Chetverikov & Jehee (2023);Experiment 1;Motion;1
2;75.428;73.557;-1.87100000000004;13;1;9;7;166.987;Chetverikov & Jehee (2023);Experiment 1;Motion;1
2;204.099;193.009;-11.09;13;1;9;8;-128.671;Chetverikov & Jehee (2023);Experiment 1;Motion;1
2;127.3024;303.853;176.5506;13;1;9;9;76.7966;Chetverikov & Jehee (2023);Experiment 1;Motion;1
2;220.66;233.684;13.024;13;1;9;10;-93.3576;Chetverikov & Jehee (2023);Experiment 1;Motion;1
2;185.197;180.721;-4.476;13;1;9;11;35.463;Chetverikov & Jehee (2023);Experiment 1;Motion;1
2;53.414;182.06;128.646;13;1;9;12;131.783;Chetverikov & Jehee (2023);Experiment 1;Motion;1
2;270.53;270.439;-0.0909999999999513;13;1;9;13;142.884;Chetverikov & Jehee (2023);Experiment 1;Motion;1
2;32.931;43.719;10.788;13;1;9;14;-122.401;Chetverikov & Jehee (2023);Experiment 1;Motion;1
2;85.8561;78.987;-6.8691;13;1;9;15;-52.9251;Chetverikov & Jehee (2023);Experiment 1;Motion;1
2;163.646;151.105;-12.541;13;1;9;16;-77.7899;Chetverikov & Jehee (2023);Experiment 1;Motion;1
2;320.06;333.801;13.741;13;1;9;17;-156.414;Chetverikov & Jehee (2023);Experiment 1;Motion;1
2;286.504;278.848;-7.65600000000003;13;1;9;18;33.556;Chetverikov & Jehee (2023);Experiment 1;Motion;1
2;291.253;278.378;-12.8750000000001;14;1;9;1;-4.74899999999997;Chetverikov & Jehee (2023);Experiment 1;Motion;1
2;143.8234;179.500768;35.677368;14;1;9;2;147.4296;Chetverikov & Jehee (2023);Experiment 1;Motion;1
2;46.552;53.021;6.46899999999999;14;1;9;3;97.2714;Chetverikov & Jehee (2023);Experiment 1;Motion;1
2;133.7408;293.973;160.2322;14;1;9;4;-87.1888;Chetverikov & Jehee (2023);Experiment 1;Motion;1
2;344.328;344.646;0.317999999999984;14;1;9;5;149.4128;Chetverikov & Jehee (2023);Experiment 1;Motion;1
2;174.12294;176.66102;2.53808000000001;14;1;9;6;170.20506;Chetverikov & Jehee (2023);Experiment 1;Motion;1
2;5.81700000000001;357.292;-8.52499999999998;14;1;9;7;168.30594;Chetverikov & Jehee (2023);Experiment 1;Motion;1
2;238.531;252.16;13.629;14;1;9;8;127.286;Chetverikov & Jehee (2023);Experiment 1;Motion;1
2;316.769;311.616;-5.15299999999999;14;1;9;9;-78.238;Chetverikov & Jehee (2023);Experiment 1;Motion;1
2;327.664;137.9271;170.2631;14;1;9;10;-10.895;Chetverikov & Jehee (2023);Experiment 1;Motion;1
2;32.648;234.206;-158.442;14;1;9;11;-64.984;Chetverikov & Jehee (2023);Experiment 1;Motion;1
2;218.553;235.41;16.857;14;1;9;12;174.095;Chetverikov & Jehee (2023);Experiment 1;Motion;1
2;109.1772;102.5447;-6.63249999999999;14;1;9;13;109.3758;Chetverikov & Jehee (2023);Experiment 1;Motion;1
2;75.899;79.741;3.84199999999998;14;1;9;14;33.2782;Chetverikov & Jehee (2023);Experiment 1;Motion;1
2;82.9504;82.624;-0.326400000000007;14;1;9;15;-7.0514;Chetverikov & Jehee (2023);Experiment 1;Motion;1
2;196.413;186.989;-9.42400000000001;14;1;9;16;-113.4626;Chetverikov & Jehee (2023);Experiment 1;Motion;1
2;243.285;253.457;10.1719999999999;14;1;9;17;-46.8720000000001;Chetverikov & Jehee (2023);Experiment 1;Motion;1
2;262.667;262.704;0.0370000000000346;14;1;9;18;-19.3819999999999;Chetverikov & Jehee (2023);Experiment 1;Motion;1
2;151.779;160.4993;8.72030000000001;15;1;9;1;110.888;Chetverikov & Jehee (2023);Experiment 1;Motion;1
2;268.274;267.531;-0.742999999999938;15;1;9;2;-116.495;Chetverikov & Jehee (2023);Experiment 1;Motion;1
2;8.251;2.30000000000001;-5.95099999999999;15;1;9;3;-99.977;Chetverikov & Jehee (2023);Experiment 1;Motion;1
2;353.002;347.165;-5.83699999999999;15;1;9;4;15.249;Chetverikov & Jehee (2023);Experiment 1;Motion;1
2;329.899;334.41;4.51099999999997;15;1;9;5;23.103;Chetverikov & Jehee (2023);Experiment 1;Motion;1
2;167.5069;170.8627;3.35580000000002;15;1;9;6;162.3921;Chetverikov & Jehee (2023);Experiment 1;Motion;1
2;20.215;17.711;-2.50399999999999;15;1;9;7;147.2919;Chetverikov & Jehee (2023);Experiment 1;Motion;1
2;41.011;205.132;164.121;15;1;9;8;-20.796;Chetverikov & Jehee (2023);Experiment 1;Motion;1
2;287.481;275.595;-11.886;15;1;9;9;113.53;Chetverikov & Jehee (2023);Experiment 1;Motion;1
2;233.579;227.502;-6.07699999999997;15;1;9;10;53.902;Chetverikov & Jehee (2023);Experiment 1;Motion;1
2;126.7217;119.9514;-6.77029999999999;15;1;9;11;106.8573;Chetverikov & Jehee (2023);Experiment 1;Motion;1
2;192.656;177.61019;-15.04581;15;1;9;12;-65.9343000000001;Chetverikov & Jehee (2023);Experiment 1;Motion;1
2;245.144;257.216;12.072;15;1;9;13;-52.4879999999999;Chetverikov & Jehee (2023);Experiment 1;Motion;1
2;80.2491;80.9899;0.740800000000007;15;1;9;14;164.8949;Chetverikov & Jehee (2023);Experiment 1;Motion;1
2;209.912;31.805;-178.107;15;1;9;15;-129.6629;Chetverikov & Jehee (2023);Experiment 1;Motion;1
2;68.503;82.6928;14.1898;15;1;9;16;141.409;Chetverikov & Jehee (2023);Experiment 1;Motion;1
2;313.437;143.2883;-170.1487;15;1;9;17;115.066;Chetverikov & Jehee (2023);Experiment 1;Motion;1
2;115.474;301.016;-174.458;15;1;9;18;-162.037;Chetverikov & Jehee (2023);Experiment 1;Motion;1
2;121.3132;176.96902;55.65582;16;1;9;1;-5.83919999999999;Chetverikov & Jehee (2023);Experiment 1;Motion;1
2;342.775;317.568;-25.2070000000001;16;1;9;2;138.5382;Chetverikov & Jehee (2023);Experiment 1;Motion;1
2;228.089;230.29;2.20100000000002;16;1;9;3;114.686;Chetverikov & Jehee (2023);Experiment 1;Motion;1
2;68.268;60.266;-8.00199999999998;16;1;9;4;159.821;Chetverikov & Jehee (2023);Experiment 1;Motion;1
2;97.2625;91.561;-5.70150000000001;16;1;9;5;-28.9945;Chetverikov & Jehee (2023);Experiment 1;Motion;1
2;194.627;183.077;-11.55;16;1;9;6;-97.3645;Chetverikov & Jehee (2023);Experiment 1;Motion;1
2;217.185;207.519;-9.66600000000003;16;1;9;7;-22.558;Chetverikov & Jehee (2023);Experiment 1;Motion;1
2;338.966;342.765;3.79900000000001;16;1;9;8;-121.781;Chetverikov & Jehee (2023);Experiment 1;Motion;1
2;20.519;25.105;4.58599999999998;16;1;9;9;-41.553;Chetverikov & Jehee (2023);Experiment 1;Motion;1
2;303.504;284.147;-19.357;16;1;9;10;77.015;Chetverikov & Jehee (2023);Experiment 1;Motion;1
2;170.68334;174.08688;3.40353999999999;16;1;9;11;132.82066;Chetverikov & Jehee (2023);Experiment 1;Motion;1
2;249.695;258.857;9.16200000000001;16;1;9;12;-79.01166;Chetverikov & Jehee (2023);Experiment 1;Motion;1
2;9.91999999999999;3.44;-6.47999999999996;16;1;9;13;-120.225;Chetverikov & Jehee (2023);Experiment 1;Motion;1
2;116.6619;287.814;171.1521;16;1;9;14;-106.7419;Chetverikov & Jehee (2023);Experiment 1;Motion;1
2;294.853;287.182;-7.67100000000005;16;1;9;15;-178.1911;Chetverikov & Jehee (2023);Experiment 1;Motion;1
2;41.871;54.324;12.453;16;1;9;16;-107.018;Chetverikov & Jehee (2023);Experiment 1;Motion;1
2;142.3317;144.5516;2.2199;16;1;9;17;-100.4607;Chetverikov & Jehee (2023);Experiment 1;Motion;1
2;275.13;274.852;-0.27800000000002;16;1;9;18;-132.7983;Chetverikov & Jehee (2023);Experiment 1;Motion;1
2;3.34200000000001;357.697;-5.64499999999998;17;1;9;1;-88.212;Chetverikov & Jehee (2023);Experiment 1;Motion;1
2;153.7541;145.1688;-8.58529999999999;17;1;9;2;-150.4121;Chetverikov & Jehee (2023);Experiment 1;Motion;1
2;278.505;274.65;-3.85500000000002;17;1;9;3;-124.7509;Chetverikov & Jehee (2023);Experiment 1;Motion;1
2;290.335;279.227;-11.108;17;1;9;4;-11.83;Chetverikov & Jehee (2023);Experiment 1;Motion;1
2;192.183;202.573;10.39;17;1;9;5;98.152;Chetverikov & Jehee (2023);Experiment 1;Motion;1
2;57.628;189.205;131.577;17;1;9;6;134.555;Chetverikov & Jehee (2023);Experiment 1;Motion;1
2;96.912;184.135;87.223;17;1;9;7;-39.284;Chetverikov & Jehee (2023);Experiment 1;Motion;1
2;163.6015;175.78783;12.18633;17;1;9;8;-66.6895;Chetverikov & Jehee (2023);Experiment 1;Motion;1
2;230.589;243.062;12.473;17;1;9;9;-66.9875000000001;Chetverikov & Jehee (2023);Experiment 1;Motion;1
2;116.3538;310.178;-166.1758;17;1;9;10;114.2352;Chetverikov & Jehee (2023);Experiment 1;Motion;1
2;351.087;351.846;0.758999999999958;17;1;9;11;125.2668;Chetverikov & Jehee (2023);Experiment 1;Motion;1
2;61.275;253.189;-168.086;17;1;9;12;-70.188;Chetverikov & Jehee (2023);Experiment 1;Motion;1
2;241.747;252.036;10.289;17;1;9;13;179.528;Chetverikov & Jehee (2023);Experiment 1;Motion;1
2;139.9149;138.0456;-1.86930000000001;17;1;9;14;101.8321;Chetverikov & Jehee (2023);Experiment 1;Motion;1
2;202.658;193.971;-8.68700000000001;17;1;9;15;-62.7431;Chetverikov & Jehee (2023);Experiment 1;Motion;1
2;314.216;313.199;-1.017;17;1;9;16;-111.558;Chetverikov & Jehee (2023);Experiment 1;Motion;1
2;332.293;332.327;0.0339999999999918;17;1;9;17;-18.077;Chetverikov & Jehee (2023);Experiment 1;Motion;1
2;35.414;213.006;177.592;17;1;9;18;-63.121;Chetverikov & Jehee (2023);Experiment 1;Motion;1
2;238.525;248.305;9.78000000000003;1;1;9;1;156.889;Chetverikov & Jehee (2023);Experiment 1;Motion;1
2;192.497;339.082;146.585;1;1;9;2;46.028;Chetverikov & Jehee (2023);Experiment 1;Motion;1
2;56.115;256.412;-159.703;1;1;9;3;136.382;Chetverikov & Jehee (2023);Experiment 1;Motion;1
2;91.7875;107.2412;15.4537;1;1;9;4;-35.6725;Chetverikov & Jehee (2023);Experiment 1;Motion;1
2;247.081;301.832;54.751;1;1;9;5;-155.2935;Chetverikov & Jehee (2023);Experiment 1;Motion;1
2;344.907;95.0316;110.1246;1;1;9;6;-97.8259999999999;Chetverikov & Jehee (2023);Experiment 1;Motion;1
2;265.566;288.703;23.137;1;1;9;7;79.341;Chetverikov & Jehee (2023);Experiment 1;Motion;1
2;320.443;334.87;14.427;1;1;9;8;-54.877;Chetverikov & Jehee (2023);Experiment 1;Motion;1
2;141.7992;166.3476;24.5484;1;1;9;9;178.6438;Chetverikov & Jehee (2023);Experiment 1;Motion;1
2;213.856;197.166;-16.69;1;1;9;10;-72.0568;Chetverikov & Jehee (2023);Experiment 1;Motion;1
2;119.3057;144.6311;25.3254;1;1;9;11;94.5503;Chetverikov & Jehee (2023);Experiment 1;Motion;1
2;15.885;193.095;177.21;1;1;9;12;103.4207;Chetverikov & Jehee (2023);Experiment 1;Motion;1
2;282.189;282.903;0.713999999999999;1;1;9;13;93.696;Chetverikov & Jehee (2023);Experiment 1;Motion;1
2;74.745;91.2268;16.4818;1;1;9;14;-152.556;Chetverikov & Jehee (2023);Experiment 1;Motion;1
2;165.935;266.167;100.232;1;1;9;15;-91.19;Chetverikov & Jehee (2023);Experiment 1;Motion;1
2;306.654;305.55;-1.10400000000001;1;1;9;16;-140.719;Chetverikov & Jehee (2023);Experiment 1;Motion;1
2;135.9647;189.609;53.6443;1;1;9;17;170.6893;Chetverikov & Jehee (2023);Experiment 1;Motion;1
2;24.89;279.976;-104.914;1;1;9;18;111.0747;Chetverikov & Jehee (2023);Experiment 1;Motion;1
2;299.715;281.918;-17.797;2;1;9;1;85.175;Chetverikov & Jehee (2023);Experiment 1;Motion;1
2;212.995;210.134;-2.86100000000002;2;1;9;2;86.72;Chetverikov & Jehee (2023);Experiment 1;Motion;1
2;142.0786;334.671;-167.4076;2;1;9;3;70.9164;Chetverikov & Jehee (2023);Experiment 1;Motion;1
2;278.323;281.366;3.04300000000006;2;1;9;4;-136.2444;Chetverikov & Jehee (2023);Experiment 1;Motion;1
2;85.0445;94.9747;9.93020000000001;2;1;9;5;-166.7215;Chetverikov & Jehee (2023);Experiment 1;Motion;1
2;249.152;254.139;4.987;2;1;9;6;-164.1075;Chetverikov & Jehee (2023);Experiment 1;Motion;1
2;235.18;88.3546;-146.8254;2;1;9;7;13.9719999999999;Chetverikov & Jehee (2023);Experiment 1;Motion;1
2;36.782;139.6332;102.8512;2;1;9;8;-161.602;Chetverikov & Jehee (2023);Experiment 1;Motion;1
2;165.6513;354.478;-171.1733;2;1;9;9;-128.8693;Chetverikov & Jehee (2023);Experiment 1;Motion;1
2;45.073;263.552;-141.521;2;1;9;10;120.5783;Chetverikov & Jehee (2023);Experiment 1;Motion;1
2;320.334;175.41959;-144.91441;2;1;9;11;84.739;Chetverikov & Jehee (2023);Experiment 1;Motion;1
2;197.772;101.4679;-96.3041;2;1;9;12;122.562;Chetverikov & Jehee (2023);Experiment 1;Motion;1
2;358.396;90.5899;92.1938999999999;2;1;9;13;-160.624;Chetverikov & Jehee (2023);Experiment 1;Motion;1
2;139.8586;259.801;119.9424;2;1;9;14;-141.4626;Chetverikov & Jehee (2023);Experiment 1;Motion;1
2;309.152;175.06726;-134.08474;2;1;9;15;-169.2934;Chetverikov & Jehee (2023);Experiment 1;Motion;1
2;3.59200000000001;172.82284;169.23084;2;1;9;16;-54.4400000000001;Chetverikov & Jehee (2023);Experiment 1;Motion;1
2;73.69;78.479;4.78899999999999;2;1;9;17;-70.098;Chetverikov & Jehee (2023);Experiment 1;Motion;1
2;118.8339;266.554;147.7201;2;1;9;18;-45.1439;Chetverikov & Jehee (2023);Experiment 1;Motion;1
2;134.3242;97.4612;-36.863;3;1;9;1;-15.4903;Chetverikov & Jehee (2023);Experiment 1;Motion;1
2;237.664;166.517;-71.147;3;1;9;2;-103.3398;Chetverikov & Jehee (2023);Experiment 1;Motion;1
2;15.199;30.174;14.975;3;1;9;3;-137.535;Chetverikov & Jehee (2023);Experiment 1;Motion;1
2;298.266;191.422;-106.844;3;1;9;4;76.933;Chetverikov & Jehee (2023);Experiment 1;Motion;1
2;251.953;258.055;6.10200000000003;3;1;9;5;46.313;Chetverikov & Jehee (2023);Experiment 1;Motion;1
2;55.242;180.916;125.674;3;1;9;6;-163.289;Chetverikov & Jehee (2023);Experiment 1;Motion;1
2;261.246;271.006;9.75999999999999;3;1;9;7;153.996;Chetverikov & Jehee (2023);Experiment 1;Motion;1
2;316.714;89.294;132.58;3;1;9;8;-55.468;Chetverikov & Jehee (2023);Experiment 1;Motion;1
2;182.14;269.803;87.663;3;1;9;9;134.574;Chetverikov & Jehee (2023);Experiment 1;Motion;1
2;35.941;180.598;144.657;3;1;9;10;146.199;Chetverikov & Jehee (2023);Experiment 1;Motion;1
2;349.349;183.016;-166.333;3;1;9;11;46.592;Chetverikov & Jehee (2023);Experiment 1;Motion;1
2;333.352;271.055;-62.297;3;1;9;12;15.997;Chetverikov & Jehee (2023);Experiment 1;Motion;1
2;214.405;88.0101;-126.3949;3;1;9;13;118.947;Chetverikov & Jehee (2023);Experiment 1;Motion;1
2;64.007;354.626;-69.381;3;1;9;14;150.398;Chetverikov & Jehee (2023);Experiment 1;Motion;1
2;150.1715;178.9825;28.811;3;1;9;15;-86.1645;Chetverikov & Jehee (2023);Experiment 1;Motion;1
2;112.4508;102.4257;-10.0251;3;1;9;16;37.7207;Chetverikov & Jehee (2023);Experiment 1;Motion;1
2;171.97462;57.272;-114.70262;3;1;9;17;-59.52382;Chetverikov & Jehee (2023);Experiment 1;Motion;1
2;85.9324;87.2874;1.35500000000002;3;1;9;18;86.04222;Chetverikov & Jehee (2023);Experiment 1;Motion;1
2;208.475;290.166;81.6909999999999;4;1;9;1;-122.5426;Chetverikov & Jehee (2023);Experiment 1;Motion;1
2;52.082;320.368;-91.714;4;1;9;2;156.393;Chetverikov & Jehee (2023);Experiment 1;Motion;1
2;63.672;157.4583;93.7863;4;1;9;3;-11.59;Chetverikov & Jehee (2023);Experiment 1;Motion;1
2;102.4588;156.3629;53.9041;4;1;9;4;-38.7868;Chetverikov & Jehee (2023);Experiment 1;Motion;1
2;227.44;103.2046;-124.2354;4;1;9;5;-124.9812;Chetverikov & Jehee (2023);Experiment 1;Motion;1
2;242.595;223.569;-19.0260000000001;4;1;9;6;-15.1550000000001;Chetverikov & Jehee (2023);Experiment 1;Motion;1
2;267.133;259.352;-7.78100000000001;4;1;9;7;-24.5379999999999;Chetverikov & Jehee (2023);Experiment 1;Motion;1
2;296.718;273.633;-23.085;4;1;9;8;-29.585;Chetverikov & Jehee (2023);Experiment 1;Motion;1
2;345.577;154.7807;169.2037;4;1;9;9;-48.859;Chetverikov & Jehee (2023);Experiment 1;Motion;1
2;9.511;230.214;-139.297;4;1;9;10;-23.934;Chetverikov & Jehee (2023);Experiment 1;Motion;1
2;191.443;177.97214;-13.47086;4;1;9;11;178.068;Chetverikov & Jehee (2023);Experiment 1;Motion;1
2;334.098;89.6671;115.5691;4;1;9;12;-142.655;Chetverikov & Jehee (2023);Experiment 1;Motion;1
2;86.1101;236.464;150.3539;4;1;9;13;-112.0121;Chetverikov & Jehee (2023);Experiment 1;Motion;1
2;135.887;109.6972;-26.1898;4;1;9;14;-49.7769;Chetverikov & Jehee (2023);Experiment 1;Motion;1
2;168.9262;135.9252;-33.001;4;1;9;15;-33.0392;Chetverikov & Jehee (2023);Experiment 1;Motion;1
2;307.891;260.456;-47.435;4;1;9;16;-138.9648;Chetverikov & Jehee (2023);Experiment 1;Motion;1
2;37.745;168.9852;131.2402;4;1;9;17;-89.854;Chetverikov & Jehee (2023);Experiment 1;Motion;1
2;145.9001;92.1311;-53.769;4;1;9;18;-108.1551;Chetverikov & Jehee (2023);Experiment 1;Motion;1
3;307.598;312.28;4.68199999999996;1;1;9;1;NaN;Chetverikov & Jehee (2023);Experiment 1;Motion;1
3;148.2834;164.5061;16.2227;1;1;9;2;159.3146;Chetverikov & Jehee (2023);Experiment 1;Motion;1
3;284.544;275.104;-9.44000000000003;1;1;9;3;-136.2606;Chetverikov & Jehee (2023);Experiment 1;Motion;1
3;64.087;183.208;119.121;1;1;9;4;-139.543;Chetverikov & Jehee (2023);Experiment 1;Motion;1
3;120.7589;96.8065;-23.9524;1;1;9;5;-56.6719;Chetverikov & Jehee (2023);Experiment 1;Motion;1
3;180.657;175.15629;-5.50071000000003;1;1;9;6;-59.8981;Chetverikov & Jehee (2023);Experiment 1;Motion;1
3;253.216;254.385;1.16899999999998;1;1;9;7;-72.559;Chetverikov & Jehee (2023);Experiment 1;Motion;1
3;222.841;225.634;2.79299999999998;1;1;9;8;30.375;Chetverikov & Jehee (2023);Experiment 1;Motion;1
3;330.684;339.958;9.274;1;1;9;9;-107.843;Chetverikov & Jehee (2023);Experiment 1;Motion;1
3;211.343;192.892;-18.4510000000001;1;1;9;10;119.341;Chetverikov & Jehee (2023);Experiment 1;Motion;1
3;113.3929;275.604;162.2111;1;1;9;11;97.9501000000001;Chetverikov & Jehee (2023);Experiment 1;Motion;1
3;346.437;343.104;-3.33300000000003;1;1;9;12;126.9559;Chetverikov & Jehee (2023);Experiment 1;Motion;1
3;270.57;270.409;-0.161000000000001;1;1;9;13;75.867;Chetverikov & Jehee (2023);Experiment 1;Motion;1
3;44.424;51.472;7.04800000000003;1;1;9;14;-133.854;Chetverikov & Jehee (2023);Experiment 1;Motion;1
3;170.78842;171.05122;0.262799999999999;1;1;9;15;-126.36442;Chetverikov & Jehee (2023);Experiment 1;Motion;1
3;10.761;4.32499999999999;-6.43600000000001;1;1;9;16;160.02742;Chetverikov & Jehee (2023);Experiment 1;Motion;1
3;25.679;17.84;-7.839;1;1;9;17;-14.918;Chetverikov & Jehee (2023);Experiment 1;Motion;1
3;97.7413;276.777;179.0357;1;1;9;18;-72.0623;Chetverikov & Jehee (2023);Experiment 1;Motion;1
3;91.4713;266.686;175.2147;2;1;9;1;6.27;Chetverikov & Jehee (2023);Experiment 1;Motion;1
3;25.413;199.451;174.038;2;1;9;2;66.0583;Chetverikov & Jehee (2023);Experiment 1;Motion;1
3;79.969;277.959;-162.01;2;1;9;3;-54.556;Chetverikov & Jehee (2023);Experiment 1;Motion;1
3;350.138;346.723;-3.41499999999996;2;1;9;4;89.831;Chetverikov & Jehee (2023);Experiment 1;Motion;1
3;142.8783;166.889;24.0107;2;1;9;5;-152.7403;Chetverikov & Jehee (2023);Experiment 1;Motion;1
3;303.999;274.935;-29.064;2;1;9;6;-161.1207;Chetverikov & Jehee (2023);Experiment 1;Motion;1
3;196.761;188.838;-7.92299999999997;2;1;9;7;107.238;Chetverikov & Jehee (2023);Experiment 1;Motion;1
3;132.7705;270.463;137.6925;2;1;9;8;63.9905;Chetverikov & Jehee (2023);Experiment 1;Motion;1
3;235.419;252.761;17.342;2;1;9;9;-102.6485;Chetverikov & Jehee (2023);Experiment 1;Motion;1
3;173.38871;165.9258;-7.46290999999999;2;1;9;10;62.03029;Chetverikov & Jehee (2023);Experiment 1;Motion;1
3;200.744;196.097;-4.64700000000005;2;1;9;11;-27.35529;Chetverikov & Jehee (2023);Experiment 1;Motion;1
3;289.436;278.686;-10.75;2;1;9;12;-88.692;Chetverikov & Jehee (2023);Experiment 1;Motion;1
3;49.568;47.69;-1.87800000000001;2;1;9;13;-120.132;Chetverikov & Jehee (2023);Experiment 1;Motion;1
3;106.293;105.4228;-0.870200000000011;2;1;9;14;-56.725;Chetverikov & Jehee (2023);Experiment 1;Motion;1
3;251.942;342.692;90.75;2;1;9;15;-145.649;Chetverikov & Jehee (2023);Experiment 1;Motion;1
3;321.44;162.8626;-158.5774;2;1;9;16;-69.498;Chetverikov & Jehee (2023);Experiment 1;Motion;1
3;13.862;185.347;171.485;2;1;9;17;-52.422;Chetverikov & Jehee (2023);Experiment 1;Motion;1
3;268.582;265.955;-2.62699999999998;2;1;9;18;105.28;Chetverikov & Jehee (2023);Experiment 1;Motion;1
3;152.2138;280.358;128.1442;3;1;9;1;116.3682;Chetverikov & Jehee (2023);Experiment 1;Motion;1
3;325.719;191.573;-134.146;3;1;9;2;-173.5052;Chetverikov & Jehee (2023);Experiment 1;Motion;1
3;79.488;171.21143;91.72343;3;1;9;3;-113.769;Chetverikov & Jehee (2023);Experiment 1;Motion;1
3;275.113;266.559;-8.55399999999997;3;1;9;4;164.375;Chetverikov & Jehee (2023);Experiment 1;Motion;1
3;240.315;259.185;18.87;3;1;9;5;34.798;Chetverikov & Jehee (2023);Experiment 1;Motion;1
3;27.595;15.391;-12.204;3;1;9;6;-147.28;Chetverikov & Jehee (2023);Experiment 1;Motion;1
3;178.76086;176.41338;-2.34747999999999;3;1;9;7;-151.16586;Chetverikov & Jehee (2023);Experiment 1;Motion;1
3;302.985;281.522;-21.4630000000001;3;1;9;8;-124.22414;Chetverikov & Jehee (2023);Experiment 1;Motion;1
3;91.709;174.45873;82.74973;3;1;9;9;-148.724;Chetverikov & Jehee (2023);Experiment 1;Motion;1
3;117.7873;295.885;178.0977;3;1;9;10;-26.0783;Chetverikov & Jehee (2023);Experiment 1;Motion;1
3;211.218;218.202;6.98399999999995;3;1;9;11;-93.4307;Chetverikov & Jehee (2023);Experiment 1;Motion;1
3;17.971;17.319;-0.652000000000015;3;1;9;12;-166.753;Chetverikov & Jehee (2023);Experiment 1;Motion;1
3;348.662;347.215;-1.447;3;1;9;13;29.309;Chetverikov & Jehee (2023);Experiment 1;Motion;1
3;282.809;276.406;-6.40300000000002;3;1;9;14;65.8530000000001;Chetverikov & Jehee (2023);Experiment 1;Motion;1
3;197.088;196.515;-0.573000000000036;3;1;9;15;85.7209999999999;Chetverikov & Jehee (2023);Experiment 1;Motion;1
3;53.779;66.029;12.25;3;1;9;16;143.309;Chetverikov & Jehee (2023);Experiment 1;Motion;1
3;133.3724;150.077;16.7046;3;1;9;17;-79.5934;Chetverikov & Jehee (2023);Experiment 1;Motion;1
3;228.791;241.662;12.871;3;1;9;18;-95.4186;Chetverikov & Jehee (2023);Experiment 1;Motion;1
3;125.9444;180.183;54.2386;4;1;9;1;102.8466;Chetverikov & Jehee (2023);Experiment 1;Motion;1
3;325.489;334.653;9.16399999999993;4;1;9;2;160.4554;Chetverikov & Jehee (2023);Experiment 1;Motion;1
3;147.2889;163.8601;16.5712;4;1;9;3;178.2001;Chetverikov & Jehee (2023);Experiment 1;Motion;1
3;211.061;197.125;-13.936;4;1;9;4;-63.7721;Chetverikov & Jehee (2023);Experiment 1;Motion;1
3;83.0899;262.416;179.3261;4;1;9;5;127.9711;Chetverikov & Jehee (2023);Experiment 1;Motion;1
3;112.1734;187.972;75.7986;4;1;9;6;-29.0835;Chetverikov & Jehee (2023);Experiment 1;Motion;1
3;233.069;242.814;9.74500000000003;4;1;9;7;-120.8956;Chetverikov & Jehee (2023);Experiment 1;Motion;1
3;279.624;270.228;-9.39599999999999;4;1;9;8;-46.555;Chetverikov & Jehee (2023);Experiment 1;Motion;1
3;15.892;2.79300000000001;-13.099;4;1;9;9;-96.268;Chetverikov & Jehee (2023);Experiment 1;Motion;1
3;74.305;347.471;-86.834;4;1;9;10;-58.413;Chetverikov & Jehee (2023);Experiment 1;Motion;1
3;51.605;56.55;4.94499999999999;4;1;9;11;22.7;Chetverikov & Jehee (2023);Experiment 1;Motion;1
3;282;280.426;-1.57400000000004;4;1;9;12;129.605;Chetverikov & Jehee (2023);Experiment 1;Motion;1
3;166.3811;174.00675;7.62565000000001;4;1;9;13;115.6189;Chetverikov & Jehee (2023);Experiment 1;Motion;1
3;304.578;308.212;3.63400000000001;4;1;9;14;-138.1969;Chetverikov & Jehee (2023);Experiment 1;Motion;1
3;256.812;254.362;-2.44999999999999;4;1;9;15;47.766;Chetverikov & Jehee (2023);Experiment 1;Motion;1
3;23.033;201.308;178.275;4;1;9;16;-126.221;Chetverikov & Jehee (2023);Experiment 1;Motion;1
3;341.674;343.001;1.32700000000003;4;1;9;17;41.359;Chetverikov & Jehee (2023);Experiment 1;Motion;1
3;193.909;188.184;-5.72499999999997;4;1;9;18;147.765;Chetverikov & Jehee (2023);Experiment 1;Motion;1
3;29.096;188.84;159.744;5;1;9;1;164.813;Chetverikov & Jehee (2023);Experiment 1;Motion;1
3;145.2128;167.1171;21.9043;5;1;9;2;-116.1168;Chetverikov & Jehee (2023);Experiment 1;Motion;1
3;238.257;243.968;5.71100000000004;5;1;9;3;-93.0442;Chetverikov & Jehee (2023);Experiment 1;Motion;1
3;84.0403;169.3062;85.2659;5;1;9;4;154.2167;Chetverikov & Jehee (2023);Experiment 1;Motion;1
3;304.981;296.457;-8.52400000000006;5;1;9;5;139.0593;Chetverikov & Jehee (2023);Experiment 1;Motion;1
3;324.91;334.236;9.32599999999999;5;1;9;6;-19.929;Chetverikov & Jehee (2023);Experiment 1;Motion;1
3;215.416;214.003;-1.41300000000001;5;1;9;7;109.494;Chetverikov & Jehee (2023);Experiment 1;Motion;1
3;259.519;262.807;3.28799999999998;5;1;9;8;-44.103;Chetverikov & Jehee (2023);Experiment 1;Motion;1
3;62.542;76.058;13.516;5;1;9;9;-163.023;Chetverikov & Jehee (2023);Experiment 1;Motion;1
3;110.2737;193.243;82.9693;5;1;9;10;-47.7317;Chetverikov & Jehee (2023);Experiment 1;Motion;1
3;344.395;349.333;4.93800000000002;5;1;9;11;125.8787;Chetverikov & Jehee (2023);Experiment 1;Motion;1
3;271.267;176.13925;-95.12775;5;1;9;12;73.128;Chetverikov & Jehee (2023);Experiment 1;Motion;1
3;123.9645;104.1111;-19.8534;5;1;9;13;147.3025;Chetverikov & Jehee (2023);Experiment 1;Motion;1
3;42.208;192.709;150.501;5;1;9;14;81.7565;Chetverikov & Jehee (2023);Experiment 1;Motion;1
3;295.348;283.386;-11.962;5;1;9;15;106.86;Chetverikov & Jehee (2023);Experiment 1;Motion;1
3;0.74199999999999;180.87;-179.872;5;1;9;16;-65.394;Chetverikov & Jehee (2023);Experiment 1;Motion;1
3;179.563211;174.32777;-5.23544100000001;5;1;9;17;-178.821211;Chetverikov & Jehee (2023);Experiment 1;Motion;1
3;198.101;186.4;-11.701;5;1;9;18;-18.537789;Chetverikov & Jehee (2023);Experiment 1;Motion;1
3;10.504;2.81700000000001;-7.68699999999998;6;1;9;1;-172.403;Chetverikov & Jehee (2023);Experiment 1;Motion;1
3;183.575;185.096;1.52099999999999;6;1;9;2;-173.071;Chetverikov & Jehee (2023);Experiment 1;Motion;1
3;258.701;254.846;-3.85500000000002;6;1;9;3;-75.126;Chetverikov & Jehee (2023);Experiment 1;Motion;1
3;278.631;164.9499;-113.6811;6;1;9;4;-19.9299999999999;Chetverikov & Jehee (2023);Experiment 1;Motion;1
3;345.092;342.53;-2.56199999999998;6;1;9;5;-66.461;Chetverikov & Jehee (2023);Experiment 1;Motion;1
3;147.7114;150.6272;2.91579999999999;6;1;9;6;-162.6194;Chetverikov & Jehee (2023);Experiment 1;Motion;1
3;214.597;204.307;-10.29;6;1;9;7;-66.8856;Chetverikov & Jehee (2023);Experiment 1;Motion;1
3;100.5236;286.314;-174.2096;6;1;9;8;114.0734;Chetverikov & Jehee (2023);Experiment 1;Motion;1
3;164.8113;170.0022;5.1909;6;1;9;9;-64.2877;Chetverikov & Jehee (2023);Experiment 1;Motion;1
3;319.611;317.133;-2.47799999999998;6;1;9;10;-154.7997;Chetverikov & Jehee (2023);Experiment 1;Motion;1
3;23.435;13.158;-10.277;6;1;9;11;-63.824;Chetverikov & Jehee (2023);Experiment 1;Motion;1
3;89.9157;265.327;175.4113;6;1;9;12;-66.4807;Chetverikov & Jehee (2023);Experiment 1;Motion;1
3;320.559;330.461;9.90199999999999;6;1;9;13;129.3567;Chetverikov & Jehee (2023);Experiment 1;Motion;1
3;53.225;242.18;-171.045;6;1;9;14;-92.6660000000001;Chetverikov & Jehee (2023);Experiment 1;Motion;1
3;128.3896;158.1137;29.7241;6;1;9;15;-75.1646;Chetverikov & Jehee (2023);Experiment 1;Motion;1
3;225.38;234.704;9.32400000000001;6;1;9;16;-96.9904000000001;Chetverikov & Jehee (2023);Experiment 1;Motion;1
3;299.254;281.689;-17.5649999999999;6;1;9;17;-73.8739999999999;Chetverikov & Jehee (2023);Experiment 1;Motion;1
3;73.148;81.2199;8.07190000000003;6;1;9;18;-133.894;Chetverikov & Jehee (2023);Experiment 1;Motion;1
3;5.05500000000001;3.59100000000001;-1.46399999999997;7;1;9;1;68.093;Chetverikov & Jehee (2023);Experiment 1;Motion;1
3;321.188;314.838;-6.34999999999997;7;1;9;2;43.867;Chetverikov & Jehee (2023);Experiment 1;Motion;1
3;30.445;250.042;-140.403;7;1;9;3;-69.257;Chetverikov & Jehee (2023);Experiment 1;Motion;1
3;71.723;164.8184;93.0954;7;1;9;4;-41.278;Chetverikov & Jehee (2023);Experiment 1;Motion;1
3;51.85;70.522;18.672;7;1;9;5;19.873;Chetverikov & Jehee (2023);Experiment 1;Motion;1
3;144.1827;154.8721;10.6894;7;1;9;6;-92.3327;Chetverikov & Jehee (2023);Experiment 1;Motion;1
3;258.417;260.373;1.95600000000002;7;1;9;7;-114.2343;Chetverikov & Jehee (2023);Experiment 1;Motion;1
3;237.537;245.453;7.91599999999997;7;1;9;8;20.88;Chetverikov & Jehee (2023);Experiment 1;Motion;1
3;182.942;181.104;-1.83799999999997;7;1;9;9;54.595;Chetverikov & Jehee (2023);Experiment 1;Motion;1
3;92.1335;359.493;-92.6405;7;1;9;10;90.8085;Chetverikov & Jehee (2023);Experiment 1;Motion;1
3;295.183;270.561;-24.622;7;1;9;11;156.9505;Chetverikov & Jehee (2023);Experiment 1;Motion;1
3;278.416;275.621;-2.79499999999999;7;1;9;12;16.767;Chetverikov & Jehee (2023);Experiment 1;Motion;1
3;356.361;357.354;0.992999999999995;7;1;9;13;-77.945;Chetverikov & Jehee (2023);Experiment 1;Motion;1
3;207.634;202.93;-4.70400000000001;7;1;9;14;148.727;Chetverikov & Jehee (2023);Experiment 1;Motion;1
3;102.3653;98.5361;-3.82919999999999;7;1;9;15;105.2687;Chetverikov & Jehee (2023);Experiment 1;Motion;1
3;309.55;291.801;-17.7490000000001;7;1;9;16;152.8153;Chetverikov & Jehee (2023);Experiment 1;Motion;1
3;169.5768;173.79747;4.22066999999998;7;1;9;17;139.9732;Chetverikov & Jehee (2023);Experiment 1;Motion;1
3;120.0857;101.0408;-19.0449;7;1;9;18;49.4911;Chetverikov & Jehee (2023);Experiment 1;Motion;1
3;32.941;5.45599999999999;-27.485;8;1;9;1;87.1447;Chetverikov & Jehee (2023);Experiment 1;Motion;1
3;115.884;278.893;163.009;8;1;9;2;-82.943;Chetverikov & Jehee (2023);Experiment 1;Motion;1
3;275.135;275.151;0.0160000000000196;8;1;9;3;-159.251;Chetverikov & Jehee (2023);Experiment 1;Motion;1
3;138.4656;160.0891;21.6235;8;1;9;4;136.6694;Chetverikov & Jehee (2023);Experiment 1;Motion;1
3;179.156088;174.91408;-4.242008;8;1;9;5;-40.690488;Chetverikov & Jehee (2023);Experiment 1;Motion;1
3;93.3577;274.122;-179.2357;8;1;9;6;85.798388;Chetverikov & Jehee (2023);Experiment 1;Motion;1
3;44.44;55.727;11.287;8;1;9;7;48.9177;Chetverikov & Jehee (2023);Experiment 1;Motion;1
3;326.43;333.579;7.14899999999994;8;1;9;8;78.01;Chetverikov & Jehee (2023);Experiment 1;Motion;1
3;3.333;184.399;-178.934;8;1;9;9;-36.903;Chetverikov & Jehee (2023);Experiment 1;Motion;1
3;147.5742;167.3592;19.785;8;1;9;10;-144.2412;Chetverikov & Jehee (2023);Experiment 1;Motion;1
3;341.727;342.423;0.696000000000026;8;1;9;11;165.8472;Chetverikov & Jehee (2023);Experiment 1;Motion;1
3;229.672;247.97;18.298;8;1;9;12;112.055;Chetverikov & Jehee (2023);Experiment 1;Motion;1
3;69.669;72.037;2.368;8;1;9;13;160.003;Chetverikov & Jehee (2023);Experiment 1;Motion;1
3;256.731;251.519;-5.21199999999999;8;1;9;14;172.938;Chetverikov & Jehee (2023);Experiment 1;Motion;1
3;289.438;280.649;-8.78899999999999;8;1;9;15;-32.707;Chetverikov & Jehee (2023);Experiment 1;Motion;1
3;204.24;199.49;-4.75;8;1;9;16;85.198;Chetverikov & Jehee (2023);Experiment 1;Motion;1
3;193.254;191.206;-2.048;8;1;9;17;10.986;Chetverikov & Jehee (2023);Experiment 1;Motion;1
3;308.47;279.75;-28.72;8;1;9;18;-115.216;Chetverikov & Jehee (2023);Experiment 1;Motion;1
3;192.844;187.5;-5.34400000000002;9;1;9;1;115.626;Chetverikov & Jehee (2023);Experiment 1;Motion;1
3;219.054;217.831;-1.22299999999993;9;1;9;2;-26.21;Chetverikov & Jehee (2023);Experiment 1;Motion;1
3;137.9988;156.7085;18.7097;9;1;9;3;81.0552;Chetverikov & Jehee (2023);Experiment 1;Motion;1
3;241.054;247.645;6.59100000000001;9;1;9;4;-103.0552;Chetverikov & Jehee (2023);Experiment 1;Motion;1
3;227.906;240.979;13.073;9;1;9;5;13.148;Chetverikov & Jehee (2023);Experiment 1;Motion;1
3;108.4436;282.254;173.8104;9;1;9;6;119.4624;Chetverikov & Jehee (2023);Experiment 1;Motion;1
3;74.57;8.12;-66.45;9;1;9;7;33.8736;Chetverikov & Jehee (2023);Experiment 1;Motion;1
3;280.209;277.349;-2.86000000000001;9;1;9;8;154.361;Chetverikov & Jehee (2023);Experiment 1;Motion;1
3;98.3433;187.596;89.2527;9;1;9;9;-178.1343;Chetverikov & Jehee (2023);Experiment 1;Motion;1
3;43.844;50.021;6.17699999999999;9;1;9;10;54.4993;Chetverikov & Jehee (2023);Experiment 1;Motion;1
3;29.395;194.258;164.863;9;1;9;11;14.449;Chetverikov & Jehee (2023);Experiment 1;Motion;1
3;1.75200000000001;355.875;-5.87699999999995;9;1;9;12;27.643;Chetverikov & Jehee (2023);Experiment 1;Motion;1
3;276.685;274.901;-1.78399999999994;9;1;9;13;85.067;Chetverikov & Jehee (2023);Experiment 1;Motion;1
3;164.1772;159.3225;-4.85470000000001;9;1;9;14;112.5078;Chetverikov & Jehee (2023);Experiment 1;Motion;1
3;337.478;340.898;3.41999999999999;9;1;9;15;-173.3008;Chetverikov & Jehee (2023);Experiment 1;Motion;1
3;315.358;329.626;14.268;9;1;9;16;22.12;Chetverikov & Jehee (2023);Experiment 1;Motion;1
3;359.57;0.590000000000003;1.01999999999998;9;1;9;17;-44.212;Chetverikov & Jehee (2023);Experiment 1;Motion;1
3;157.2454;272.17;114.9246;9;1;9;18;-157.6754;Chetverikov & Jehee (2023);Experiment 1;Motion;1
3;97.0774;268.691;171.6136;10;1;9;1;60.168;Chetverikov & Jehee (2023);Experiment 1;Motion;1
3;262.676;266.149;3.47300000000001;10;1;9;2;-165.5986;Chetverikov & Jehee (2023);Experiment 1;Motion;1
3;244.232;251.735;7.50299999999999;10;1;9;3;18.444;Chetverikov & Jehee (2023);Experiment 1;Motion;1
3;224.708;73.066;-151.642;10;1;9;4;19.5239999999999;Chetverikov & Jehee (2023);Experiment 1;Motion;1
3;325.421;333.381;7.96000000000001;10;1;9;5;-100.713;Chetverikov & Jehee (2023);Experiment 1;Motion;1
3;56.954;184.159;127.205;10;1;9;6;-91.533;Chetverikov & Jehee (2023);Experiment 1;Motion;1
3;313.799;324.504;10.705;10;1;9;7;103.155;Chetverikov & Jehee (2023);Experiment 1;Motion;1
3;152.4048;157.8077;5.40289999999999;10;1;9;8;161.3942;Chetverikov & Jehee (2023);Experiment 1;Motion;1
3;6.38200000000001;2.19200000000001;-4.19;10;1;9;9;146.0228;Chetverikov & Jehee (2023);Experiment 1;Motion;1
3;286.944;273.441;-13.503;10;1;9;10;79.438;Chetverikov & Jehee (2023);Experiment 1;Motion;1
3;61.513;69.528;8.01499999999999;10;1;9;11;-134.569;Chetverikov & Jehee (2023);Experiment 1;Motion;1
3;118.9441;56.889;-62.0551;10;1;9;12;-57.4311;Chetverikov & Jehee (2023);Experiment 1;Motion;1
3;348.79;340.67;-8.12000000000001;10;1;9;13;130.1541;Chetverikov & Jehee (2023);Experiment 1;Motion;1
3;186.535;188.901;2.36599999999996;10;1;9;14;162.255;Chetverikov & Jehee (2023);Experiment 1;Motion;1
3;203.317;197.86;-5.45700000000002;10;1;9;15;-16.782;Chetverikov & Jehee (2023);Experiment 1;Motion;1
3;166.4152;178.6715;12.2563;10;1;9;16;36.9018;Chetverikov & Jehee (2023);Experiment 1;Motion;1
3;122.6652;137.6715;15.0063;10;1;9;17;43.75;Chetverikov & Jehee (2023);Experiment 1;Motion;1
3;34.381;211.536;177.155;10;1;9;18;88.2842;Chetverikov & Jehee (2023);Experiment 1;Motion;1
3;134.2535;270.184;135.9305;11;1;9;1;-99.8725;Chetverikov & Jehee (2023);Experiment 1;Motion;1
3;292.096;277.607;-14.489;11;1;9;2;-157.8425;Chetverikov & Jehee (2023);Experiment 1;Motion;1
3;317.821;328.459;10.6379999999999;11;1;9;3;-25.725;Chetverikov & Jehee (2023);Experiment 1;Motion;1
3;206.703;198.309;-8.39399999999992;11;1;9;4;111.118;Chetverikov & Jehee (2023);Experiment 1;Motion;1
3;331.438;330.239;-1.19899999999998;11;1;9;5;-124.735;Chetverikov & Jehee (2023);Experiment 1;Motion;1
3;267.104;263.872;-3.23199999999991;11;1;9;6;64.334;Chetverikov & Jehee (2023);Experiment 1;Motion;1
3;155.6547;168.1448;12.4901;11;1;9;7;111.4493;Chetverikov & Jehee (2023);Experiment 1;Motion;1
3;98.3506;275.641;177.2904;11;1;9;8;57.3041;Chetverikov & Jehee (2023);Experiment 1;Motion;1
3;25.568;194.819;169.251;11;1;9;9;72.7826;Chetverikov & Jehee (2023);Experiment 1;Motion;1
3;68.641;71.277;2.636;11;1;9;10;-43.073;Chetverikov & Jehee (2023);Experiment 1;Motion;1
3;10.555;185.525;174.97;11;1;9;11;58.086;Chetverikov & Jehee (2023);Experiment 1;Motion;1
3;194.043;16.079;-177.964;11;1;9;12;176.512;Chetverikov & Jehee (2023);Experiment 1;Motion;1
3;53.565;245.64;-167.925;11;1;9;13;140.478;Chetverikov & Jehee (2023);Experiment 1;Motion;1
3;348.265;344.338;-3.92699999999999;11;1;9;14;65.3;Chetverikov & Jehee (2023);Experiment 1;Motion;1
3;248.673;250.873;2.19999999999999;11;1;9;15;99.592;Chetverikov & Jehee (2023);Experiment 1;Motion;1
3;235.25;239.209;3.95899999999998;11;1;9;16;13.423;Chetverikov & Jehee (2023);Experiment 1;Motion;1
3;101.5915;101.8017;0.210199999999986;11;1;9;17;133.6585;Chetverikov & Jehee (2023);Experiment 1;Motion;1
3;178.50171;176.65583;-1.84587999999999;11;1;9;18;-76.91021;Chetverikov & Jehee (2023);Experiment 1;Motion;1
3;286.187;276.217;-9.97;12;1;9;1;-107.68529;Chetverikov & Jehee (2023);Experiment 1;Motion;1
3;21.885;191.383;169.498;12;1;9;2;-95.698;Chetverikov & Jehee (2023);Experiment 1;Motion;1
3;124.5344;288.191;163.6566;12;1;9;3;-102.6494;Chetverikov & Jehee (2023);Experiment 1;Motion;1
3;213.662;199.8;-13.8619999999999;12;1;9;4;-89.1276;Chetverikov & Jehee (2023);Experiment 1;Motion;1
3;251.62;254.301;2.68099999999998;12;1;9;5;-37.958;Chetverikov & Jehee (2023);Experiment 1;Motion;1
3;196.587;197.225;0.638000000000034;12;1;9;6;55.033;Chetverikov & Jehee (2023);Experiment 1;Motion;1
3;166.8751;349.081;-177.7941;12;1;9;7;29.7119;Chetverikov & Jehee (2023);Experiment 1;Motion;1
3;17.488;11.259;-6.22900000000001;12;1;9;8;149.3871;Chetverikov & Jehee (2023);Experiment 1;Motion;1
3;344.953;352.467;7.51400000000001;12;1;9;9;32.535;Chetverikov & Jehee (2023);Experiment 1;Motion;1
3;305.826;308.732;2.90600000000001;12;1;9;10;39.127;Chetverikov & Jehee (2023);Experiment 1;Motion;1
3;70.682;259.529;-171.153;12;1;9;11;-124.856;Chetverikov & Jehee (2023);Experiment 1;Motion;1
3;94.6492;194.777;100.1278;12;1;9;12;-23.9672;Chetverikov & Jehee (2023);Experiment 1;Motion;1
3;143.9147;148.9216;5.0069;12;1;9;13;-49.2655;Chetverikov & Jehee (2023);Experiment 1;Motion;1
3;113.0456;280.757;167.7114;12;1;9;14;30.8691;Chetverikov & Jehee (2023);Experiment 1;Motion;1
3;270.716;185.835;-84.8810000000001;12;1;9;15;-157.6704;Chetverikov & Jehee (2023);Experiment 1;Motion;1
3;54.375;237.502;-176.873;12;1;9;16;-143.659;Chetverikov & Jehee (2023);Experiment 1;Motion;1
3;233.303;238.227;4.92400000000001;12;1;9;17;-178.928;Chetverikov & Jehee (2023);Experiment 1;Motion;1
3;322.625;322.337;-0.288000000000011;12;1;9;18;-89.322;Chetverikov & Jehee (2023);Experiment 1;Motion;1
3;18.417;188.622;170.205;13;1;9;1;-55.792;Chetverikov & Jehee (2023);Experiment 1;Motion;1
3;167.7597;275.696;107.9363;13;1;9;2;-149.3427;Chetverikov & Jehee (2023);Experiment 1;Motion;1
3;146.7182;99.0625;-47.6557;13;1;9;3;21.0415;Chetverikov & Jehee (2023);Experiment 1;Motion;1
3;276.345;270.325;-6.0200000000001;13;1;9;4;-129.6268;Chetverikov & Jehee (2023);Experiment 1;Motion;1
3;193.466;180.152;-13.314;13;1;9;5;82.8790000000001;Chetverikov & Jehee (2023);Experiment 1;Motion;1
3;242.169;251.77;9.60100000000006;13;1;9;6;-48.703;Chetverikov & Jehee (2023);Experiment 1;Motion;1
3;292.541;283.46;-9.08100000000002;13;1;9;7;-50.372;Chetverikov & Jehee (2023);Experiment 1;Motion;1
3;358.427;354.673;-3.75400000000002;13;1;9;8;-65.886;Chetverikov & Jehee (2023);Experiment 1;Motion;1
3;86.3789;175.76857;89.38967;13;1;9;9;-87.9519;Chetverikov & Jehee (2023);Experiment 1;Motion;1
3;130.9946;97.2055;-33.7891;13;1;9;10;-44.6157;Chetverikov & Jehee (2023);Experiment 1;Motion;1
3;325.871;312.206;-13.665;13;1;9;11;165.1236;Chetverikov & Jehee (2023);Experiment 1;Motion;1
3;60.631;72.28;11.649;13;1;9;12;-94.76;Chetverikov & Jehee (2023);Experiment 1;Motion;1
3;40.583;53.066;12.483;13;1;9;13;20.048;Chetverikov & Jehee (2023);Experiment 1;Motion;1
3;118.1877;198.489;80.3013;13;1;9;14;-77.6047;Chetverikov & Jehee (2023);Experiment 1;Motion;1
3;231.511;248.12;16.609;13;1;9;15;-113.3233;Chetverikov & Jehee (2023);Experiment 1;Motion;1
3;215.136;218.941;3.80499999999995;13;1;9;16;16.375;Chetverikov & Jehee (2023);Experiment 1;Motion;1
3;39.788;201.219;161.431;13;1;9;17;175.348;Chetverikov & Jehee (2023);Experiment 1;Motion;1
3;319.504;319.398;-0.106000000000023;13;1;9;18;80.284;Chetverikov & Jehee (2023);Experiment 1;Motion;1
3;59.872;75.894;16.022;14;1;9;1;-100.368;Chetverikov & Jehee (2023);Experiment 1;Motion;1
3;262.273;262.655;0.381999999999948;14;1;9;2;157.599;Chetverikov & Jehee (2023);Experiment 1;Motion;1
3;126.604;277.941;151.337;14;1;9;3;135.669;Chetverikov & Jehee (2023);Experiment 1;Motion;1
3;95.6838;273.652;177.9682;14;1;9;4;30.9202;Chetverikov & Jehee (2023);Experiment 1;Motion;1
3;353.915;351.177;-2.73799999999997;14;1;9;5;101.7688;Chetverikov & Jehee (2023);Experiment 1;Motion;1
3;71.898;80.1412;8.2432;14;1;9;6;-77.9830000000001;Chetverikov & Jehee (2023);Experiment 1;Motion;1
3;304.798;293.801;-10.997;14;1;9;7;127.1;Chetverikov & Jehee (2023);Experiment 1;Motion;1
3;113.6789;213.043;99.3641;14;1;9;8;-168.8809;Chetverikov & Jehee (2023);Experiment 1;Motion;1
3;324.723;331.519;6.79599999999994;14;1;9;9;148.9559;Chetverikov & Jehee (2023);Experiment 1;Motion;1
3;290.884;285.002;-5.88200000000001;14;1;9;10;33.839;Chetverikov & Jehee (2023);Experiment 1;Motion;1
3;220.671;209.752;-10.919;14;1;9;11;70.213;Chetverikov & Jehee (2023);Experiment 1;Motion;1
3;168.9686;176.16765;7.19905;14;1;9;12;51.7024;Chetverikov & Jehee (2023);Experiment 1;Motion;1
3;213.08;211.834;-1.24599999999998;14;1;9;13;-44.1114;Chetverikov & Jehee (2023);Experiment 1;Motion;1
3;11.716;7.613;-4.10300000000004;14;1;9;14;-158.636;Chetverikov & Jehee (2023);Experiment 1;Motion;1
3;249.305;253.56;4.255;14;1;9;15;122.411;Chetverikov & Jehee (2023);Experiment 1;Motion;1
3;155.0306;338.739;-176.2916;14;1;9;16;94.2744;Chetverikov & Jehee (2023);Experiment 1;Motion;1
3;186.535;187.095;0.560000000000002;14;1;9;17;-31.5044000000001;Chetverikov & Jehee (2023);Experiment 1;Motion;1
3;32.666;15.88;-16.786;14;1;9;18;153.869;Chetverikov & Jehee (2023);Experiment 1;Motion;1
3;38.875;221.094;-177.781;15;1;9;1;-6.209;Chetverikov & Jehee (2023);Experiment 1;Motion;1
3;203.247;204.115;0.868000000000023;15;1;9;2;-164.372;Chetverikov & Jehee (2023);Experiment 1;Motion;1
3;252.014;243.036;-8.97799999999998;15;1;9;3;-48.767;Chetverikov & Jehee (2023);Experiment 1;Motion;1
3;265.694;261.335;-4.35899999999998;15;1;9;4;-13.68;Chetverikov & Jehee (2023);Experiment 1;Motion;1
3;310.15;308.706;-1.44400000000002;15;1;9;5;-44.456;Chetverikov & Jehee (2023);Experiment 1;Motion;1
3;71.752;72.642;0.889999999999986;15;1;9;6;-121.602;Chetverikov & Jehee (2023);Experiment 1;Motion;1
3;45.093;158.4077;113.3147;15;1;9;7;26.659;Chetverikov & Jehee (2023);Experiment 1;Motion;1
3;289.186;277.818;-11.368;15;1;9;8;115.907;Chetverikov & Jehee (2023);Experiment 1;Motion;1
3;227.828;225.599;-2.22899999999993;15;1;9;9;61.358;Chetverikov & Jehee (2023);Experiment 1;Motion;1
3;182.717;358.179;175.462;15;1;9;10;45.111;Chetverikov & Jehee (2023);Experiment 1;Motion;1
3;119.8997;115.5525;-4.34720000000002;15;1;9;11;62.8173;Chetverikov & Jehee (2023);Experiment 1;Motion;1
3;354.371;355.525;1.15400000000002;15;1;9;12;125.5287;Chetverikov & Jehee (2023);Experiment 1;Motion;1
3;147.7656;275.277;127.5114;15;1;9;13;-153.3946;Chetverikov & Jehee (2023);Experiment 1;Motion;1
3;127.872;263.933;136.061;15;1;9;14;19.8936;Chetverikov & Jehee (2023);Experiment 1;Motion;1
3;83.0608;165.9998;82.939;15;1;9;15;44.8112;Chetverikov & Jehee (2023);Experiment 1;Motion;1
3;169.5775;166.4182;-3.1593;15;1;9;16;-86.5167;Chetverikov & Jehee (2023);Experiment 1;Motion;1
3;325.229;280.399;-44.83;15;1;9;17;-155.6515;Chetverikov & Jehee (2023);Experiment 1;Motion;1
3;4.113;357.256;-6.85699999999997;15;1;9;18;-38.884;Chetverikov & Jehee (2023);Experiment 1;Motion;1
3;167.3413;354.515;-172.8263;16;1;9;1;-163.2283;Chetverikov & Jehee (2023);Experiment 1;Motion;1
3;67.845;78.516;10.671;16;1;9;2;99.4963;Chetverikov & Jehee (2023);Experiment 1;Motion;1
3;247.549;255.367;7.8180000000001;16;1;9;3;-179.704;Chetverikov & Jehee (2023);Experiment 1;Motion;1
3;358.502;354.049;-4.45299999999997;16;1;9;4;-110.953;Chetverikov & Jehee (2023);Experiment 1;Motion;1
3;270.782;274.002;3.22;16;1;9;5;87.72;Chetverikov & Jehee (2023);Experiment 1;Motion;1
3;185.959;178.33562;-7.62338000000003;16;1;9;6;84.823;Chetverikov & Jehee (2023);Experiment 1;Motion;1
3;40.044;212.267;172.223;16;1;9;7;145.915;Chetverikov & Jehee (2023);Experiment 1;Motion;1
3;116.2209;270.511;154.2901;16;1;9;8;-76.1769;Chetverikov & Jehee (2023);Experiment 1;Motion;1
3;295.106;278.62;-16.486;16;1;9;9;-178.8851;Chetverikov & Jehee (2023);Experiment 1;Motion;1
3;32.948;213.234;-179.714;16;1;9;10;-97.842;Chetverikov & Jehee (2023);Experiment 1;Motion;1
3;206.034;17.096;171.062;16;1;9;11;-173.086;Chetverikov & Jehee (2023);Experiment 1;Motion;1
3;122.795;111.168;-11.627;16;1;9;12;83.239;Chetverikov & Jehee (2023);Experiment 1;Motion;1
3;146.7709;141.2728;-5.49809999999999;16;1;9;13;-23.9759;Chetverikov & Jehee (2023);Experiment 1;Motion;1
3;239.443;246.739;7.29600000000002;16;1;9;14;-92.6721;Chetverikov & Jehee (2023);Experiment 1;Motion;1
3;87.7831;87.0728;-0.710300000000018;16;1;9;15;151.6599;Chetverikov & Jehee (2023);Experiment 1;Motion;1
3;9.81800000000001;9.92400000000001;0.106000000000023;16;1;9;16;77.9651;Chetverikov & Jehee (2023);Experiment 1;Motion;1
3;330.537;335.088;4.55099999999999;16;1;9;17;39.2809999999999;Chetverikov & Jehee (2023);Experiment 1;Motion;1
3;313.544;311.641;-1.90300000000002;16;1;9;18;16.9930000000001;Chetverikov & Jehee (2023);Experiment 1;Motion;1
3;152.2152;154.8314;2.61619999999999;17;1;9;1;161.3288;Chetverikov & Jehee (2023);Experiment 1;Motion;1
3;347.641;352.349;4.708;17;1;9;2;164.5742;Chetverikov & Jehee (2023);Experiment 1;Motion;1
3;191.711;190.014;-1.697;17;1;9;3;155.93;Chetverikov & Jehee (2023);Experiment 1;Motion;1
3;104.0557;95.4538;-8.60190000000003;17;1;9;4;87.6553;Chetverikov & Jehee (2023);Experiment 1;Motion;1
3;93.966;275.009;-178.957;17;1;9;5;10.0897;Chetverikov & Jehee (2023);Experiment 1;Motion;1
3;253.404;55.557;162.153;17;1;9;6;-159.438;Chetverikov & Jehee (2023);Experiment 1;Motion;1
3;275.589;272.226;-3.36300000000006;17;1;9;7;-22.185;Chetverikov & Jehee (2023);Experiment 1;Motion;1
3;284.639;278.084;-6.55500000000001;17;1;9;8;-9.05000000000001;Chetverikov & Jehee (2023);Experiment 1;Motion;1
3;36.637;216.202;179.565;17;1;9;9;-111.998;Chetverikov & Jehee (2023);Experiment 1;Motion;1
3;206.839;201.313;-5.52600000000004;17;1;9;10;-170.202;Chetverikov & Jehee (2023);Experiment 1;Motion;1
3;334.227;330.213;-4.01400000000004;17;1;9;11;-127.388;Chetverikov & Jehee (2023);Experiment 1;Motion;1
3;177.03008;173.68512;-3.34495999999999;17;1;9;12;157.19692;Chetverikov & Jehee (2023);Experiment 1;Motion;1
3;41.297;226.331;-174.966;17;1;9;13;135.73308;Chetverikov & Jehee (2023);Experiment 1;Motion;1
3;237.855;247.301;9.44599999999997;17;1;9;14;163.442;Chetverikov & Jehee (2023);Experiment 1;Motion;1
3;73.377;76.496;3.11900000000003;17;1;9;15;164.478;Chetverikov & Jehee (2023);Experiment 1;Motion;1
3;312.662;313.022;0.359999999999985;17;1;9;16;120.715;Chetverikov & Jehee (2023);Experiment 1;Motion;1
3;138.1413;148.8119;10.6706;17;1;9;17;174.5207;Chetverikov & Jehee (2023);Experiment 1;Motion;1
3;2.75999999999999;357.31;-5.44999999999993;17;1;9;18;135.3813;Chetverikov & Jehee (2023);Experiment 1;Motion;1
3;332.208;339.01;6.80199999999999;18;1;9;1;30.552;Chetverikov & Jehee (2023);Experiment 1;Motion;1
3;300.774;292.379;-8.39500000000004;18;1;9;2;31.434;Chetverikov & Jehee (2023);Experiment 1;Motion;1
3;98.0148;173.9684;75.9536;18;1;9;3;-157.2408;Chetverikov & Jehee (2023);Experiment 1;Motion;1
3;299.792;299.923;0.130999999999972;18;1;9;4;158.2228;Chetverikov & Jehee (2023);Experiment 1;Motion;1
3;104.5676;102.2602;-2.30740000000003;18;1;9;5;-164.7756;Chetverikov & Jehee (2023);Experiment 1;Motion;1
3;163.9069;348.601;-175.3059;18;1;9;6;-59.3393;Chetverikov & Jehee (2023);Experiment 1;Motion;1
3;43.307;222.626;179.319;18;1;9;7;120.5999;Chetverikov & Jehee (2023);Experiment 1;Motion;1
3;142.9739;337.612;-165.3619;18;1;9;8;-99.6669;Chetverikov & Jehee (2023);Experiment 1;Motion;1
3;271.401;272.253;0.851999999999919;18;1;9;9;-128.4271;Chetverikov & Jehee (2023);Experiment 1;Motion;1
3;358.364;356.765;-1.59900000000002;18;1;9;10;-86.963;Chetverikov & Jehee (2023);Experiment 1;Motion;1
3;2.858;3.40199999999999;0.543999999999983;18;1;9;11;-4.49399999999997;Chetverikov & Jehee (2023);Experiment 1;Motion;1
3;193.354;188.353;-5.00099999999998;18;1;9;12;169.504;Chetverikov & Jehee (2023);Experiment 1;Motion;1
3;242.268;244.775;2.50700000000001;18;1;9;13;-48.914;Chetverikov & Jehee (2023);Experiment 1;Motion;1
3;227.363;234.17;6.80699999999999;18;1;9;14;14.905;Chetverikov & Jehee (2023);Experiment 1;Motion;1
3;202.669;194.696;-7.97299999999996;18;1;9;15;24.694;Chetverikov & Jehee (2023);Experiment 1;Motion;1
3;35.309;348.742;-46.567;18;1;9;16;167.36;Chetverikov & Jehee (2023);Experiment 1;Motion;1
3;75.713;81.2125;5.49950000000001;18;1;9;17;-40.404;Chetverikov & Jehee (2023);Experiment 1;Motion;1
3;133.6316;0.150000000000006;-133.4816;18;1;9;18;-57.9186;Chetverikov & Jehee (2023);Experiment 1;Motion;1
3;8.48400000000001;2.488;-5.99599999999998;19;1;9;1;125.1476;Chetverikov & Jehee (2023);Experiment 1;Motion;1
3;255.978;262.018;6.03999999999991;19;1;9;2;112.506;Chetverikov & Jehee (2023);Experiment 1;Motion;1
3;82.0972;85.6932;3.596;19;1;9;3;173.8808;Chetverikov & Jehee (2023);Experiment 1;Motion;1
3;112.8184;100.9481;-11.8703;19;1;9;4;-30.7212;Chetverikov & Jehee (2023);Experiment 1;Motion;1
3;343.334;349.68;6.346;19;1;9;5;129.4844;Chetverikov & Jehee (2023);Experiment 1;Motion;1
3;206.87;199.093;-7.77699999999996;19;1;9;6;136.464;Chetverikov & Jehee (2023);Experiment 1;Motion;1
3;177.52438;174.23114;-3.29324;19;1;9;7;29.34562;Chetverikov & Jehee (2023);Experiment 1;Motion;1
3;59.875;67.031;7.15599999999998;19;1;9;8;117.64938;Chetverikov & Jehee (2023);Experiment 1;Motion;1
3;79.801;176.80472;97.00372;19;1;9;9;-19.926;Chetverikov & Jehee (2023);Experiment 1;Motion;1
3;21.389;18.375;-3.01400000000001;19;1;9;10;58.412;Chetverikov & Jehee (2023);Experiment 1;Motion;1
3;229.136;231.791;2.65499999999997;19;1;9;11;152.253;Chetverikov & Jehee (2023);Experiment 1;Motion;1
3;199.439;189.723;-9.71600000000001;19;1;9;12;29.6970000000001;Chetverikov & Jehee (2023);Experiment 1;Motion;1
3;266.894;260.76;-6.13400000000002;19;1;9;13;-67.455;Chetverikov & Jehee (2023);Experiment 1;Motion;1
3;147.8497;164.6643;16.8146;19;1;9;14;119.0443;Chetverikov & Jehee (2023);Experiment 1;Motion;1
3;320.727;333.859;13.132;19;1;9;15;-172.8773;Chetverikov & Jehee (2023);Experiment 1;Motion;1
3;284.1;283.296;-0.803999999999974;19;1;9;16;36.627;Chetverikov & Jehee (2023);Experiment 1;Motion;1
3;316.182;317.576;1.39400000000001;19;1;9;17;-32.082;Chetverikov & Jehee (2023);Experiment 1;Motion;1
3;134.0336;139.9134;5.87979999999999;19;1;9;18;-177.8516;Chetverikov & Jehee (2023);Experiment 1;Motion;1
4;190.301;184.125;-6.17599999999993;1;1;9;1;NaN;Chetverikov & Jehee (2023);Experiment 1;Motion;1
4;33.625;24.059;-9.566;1;1;9;2;156.676;Chetverikov & Jehee (2023);Experiment 1;Motion;1
4;176.63615;182.034;5.39784999999998;1;1;9;3;-143.01115;Chetverikov & Jehee (2023);Experiment 1;Motion;1
4;219.516;222.927;3.41100000000003;1;1;9;4;-42.87985;Chetverikov & Jehee (2023);Experiment 1;Motion;1
4;297.78;290.188;-7.59200000000001;1;1;9;5;-78.264;Chetverikov & Jehee (2023);Experiment 1;Motion;1
4;269.697;270.585;0.887999999999977;1;1;9;6;28.083;Chetverikov & Jehee (2023);Experiment 1;Motion;1
4;343.407;342.225;-1.18200000000002;1;1;9;7;-73.71;Chetverikov & Jehee (2023);Experiment 1;Motion;1
4;244.798;246.068;1.26999999999998;1;1;9;8;98.609;Chetverikov & Jehee (2023);Experiment 1;Motion;1
4;321.117;321.003;-0.114000000000004;1;1;9;9;-76.319;Chetverikov & Jehee (2023);Experiment 1;Motion;1
4;79.91;83.4327;3.52269999999999;1;1;9;10;-118.793;Chetverikov & Jehee (2023);Experiment 1;Motion;1
4;112.5231;108.5382;-3.98489999999998;1;1;9;11;-32.6131;Chetverikov & Jehee (2023);Experiment 1;Motion;1
4;128.275;119.6918;-8.58320000000001;1;1;9;12;-15.7519;Chetverikov & Jehee (2023);Experiment 1;Motion;1
4;86.9914;93.8948;6.90340000000001;1;1;9;13;41.2836;Chetverikov & Jehee (2023);Experiment 1;Motion;1
4;235.651;235.002;-0.648999999999973;1;1;9;14;-148.6596;Chetverikov & Jehee (2023);Experiment 1;Motion;1
4;319.634;312.8;-6.83399999999998;1;1;9;15;-83.983;Chetverikov & Jehee (2023);Experiment 1;Motion;1
4;152.7479;171.86251;19.11461;1;1;9;16;166.8861;Chetverikov & Jehee (2023);Experiment 1;Motion;1
4;41.694;310.397;-91.297;1;1;9;17;111.0539;Chetverikov & Jehee (2023);Experiment 1;Motion;1
4;13.222;8.84700000000001;-4.37500000000003;1;1;9;18;28.472;Chetverikov & Jehee (2023);Experiment 1;Motion;1
4;282.983;182.613;-100.37;2;1;9;1;90.239;Chetverikov & Jehee (2023);Experiment 1;Motion;1
4;200.561;199.395;-1.16600000000005;2;1;9;2;82.422;Chetverikov & Jehee (2023);Experiment 1;Motion;1
4;77.492;76.866;-0.626000000000005;2;1;9;3;123.069;Chetverikov & Jehee (2023);Experiment 1;Motion;1
4;81.5065;80.6091;-0.897400000000005;2;1;9;4;-4.0145;Chetverikov & Jehee (2023);Experiment 1;Motion;1
4;106.529;106.9698;0.440800000000024;2;1;9;5;-25.0225;Chetverikov & Jehee (2023);Experiment 1;Motion;1
4;10.889;9.084;-1.80499999999998;2;1;9;6;95.64;Chetverikov & Jehee (2023);Experiment 1;Motion;1
4;263.622;192.306;-71.3160000000001;2;1;9;7;107.267;Chetverikov & Jehee (2023);Experiment 1;Motion;1
4;252.044;243.966;-8.078;2;1;9;8;11.578;Chetverikov & Jehee (2023);Experiment 1;Motion;1
4;40.741;54.481;13.74;2;1;9;9;-148.697;Chetverikov & Jehee (2023);Experiment 1;Motion;1
4;222.969;224.454;1.48500000000001;2;1;9;10;177.772;Chetverikov & Jehee (2023);Experiment 1;Motion;1
4;333.193;331.116;-2.07699999999997;2;1;9;11;-110.224;Chetverikov & Jehee (2023);Experiment 1;Motion;1
4;312.253;312.676;0.423000000000002;2;1;9;12;20.94;Chetverikov & Jehee (2023);Experiment 1;Motion;1
4;35.873;25.44;-10.433;2;1;9;13;-83.62;Chetverikov & Jehee (2023);Experiment 1;Motion;1
4;194.536;194.601;0.0650000000000262;2;1;9;14;-158.663;Chetverikov & Jehee (2023);Experiment 1;Motion;1
4;341.523;352.998;11.475;2;1;9;15;-146.987;Chetverikov & Jehee (2023);Experiment 1;Motion;1
4;149.4526;156.5795;7.12690000000001;2;1;9;16;-167.9296;Chetverikov & Jehee (2023);Experiment 1;Motion;1
4;179.9780819;183.409;3.43091810000001;2;1;9;17;-30.5254819;Chetverikov & Jehee (2023);Experiment 1;Motion;1
4;123.1739;115.5377;-7.63620000000003;2;1;9;18;56.8041819;Chetverikov & Jehee (2023);Experiment 1;Motion;1
4;68.221;75.509;7.28799999999998;3;1;9;1;54.9529;Chetverikov & Jehee (2023);Experiment 1;Motion;1
4;124.0264;121.9969;-2.02950000000001;3;1;9;2;-55.8054;Chetverikov & Jehee (2023);Experiment 1;Motion;1
4;228.513;235.052;6.53900000000002;3;1;9;3;-104.4866;Chetverikov & Jehee (2023);Experiment 1;Motion;1
4;265.861;265.631;-0.230000000000018;3;1;9;4;-37.348;Chetverikov & Jehee (2023);Experiment 1;Motion;1
4;46.202;57.242;11.04;3;1;9;5;-140.341;Chetverikov & Jehee (2023);Experiment 1;Motion;1
4;240.158;247.008;6.84999999999997;3;1;9;6;166.044;Chetverikov & Jehee (2023);Experiment 1;Motion;1
4;338.947;336.829;-2.11800000000002;3;1;9;7;-98.789;Chetverikov & Jehee (2023);Experiment 1;Motion;1
4;143.6676;148.1574;4.4898;3;1;9;8;-164.7206;Chetverikov & Jehee (2023);Experiment 1;Motion;1
4;116.9997;121.3446;4.3449;3;1;9;9;26.6679;Chetverikov & Jehee (2023);Experiment 1;Motion;1
4;296.779;297.225;0.445999999999941;3;1;9;10;-179.7793;Chetverikov & Jehee (2023);Experiment 1;Motion;1
4;219.541;220.452;0.910999999999973;3;1;9;11;77.238;Chetverikov & Jehee (2023);Experiment 1;Motion;1
4;302.047;296.268;-5.779;3;1;9;12;-82.506;Chetverikov & Jehee (2023);Experiment 1;Motion;1
4;180.226;188.493;8.267;3;1;9;13;121.821;Chetverikov & Jehee (2023);Experiment 1;Motion;1
4;29.238;9.274;-19.964;3;1;9;14;150.988;Chetverikov & Jehee (2023);Experiment 1;Motion;1
4;5.50899999999999;6.00299999999999;0.494000000000028;3;1;9;15;23.729;Chetverikov & Jehee (2023);Experiment 1;Motion;1
4;343.81;344.413;0.603000000000009;3;1;9;16;21.699;Chetverikov & Jehee (2023);Experiment 1;Motion;1
4;165.8367;163.1388;-2.6979;3;1;9;17;177.9733;Chetverikov & Jehee (2023);Experiment 1;Motion;1
4;95.5412;95.2254;-0.315799999999996;3;1;9;18;70.2955;Chetverikov & Jehee (2023);Experiment 1;Motion;1
4;296.909;183.669;-113.24;4;1;9;1;158.6322;Chetverikov & Jehee (2023);Experiment 1;Motion;1
4;219.244;224.528;5.28399999999996;4;1;9;2;77.6649999999999;Chetverikov & Jehee (2023);Experiment 1;Motion;1
4;265.177;264.678;-0.499000000000052;4;1;9;3;-45.933;Chetverikov & Jehee (2023);Experiment 1;Motion;1
4;240.485;251.978;11.4929999999999;4;1;9;4;24.6920000000001;Chetverikov & Jehee (2023);Experiment 1;Motion;1
4;86.1494;85.7508;-0.398599999999988;4;1;9;5;154.3356;Chetverikov & Jehee (2023);Experiment 1;Motion;1
4;193.266;192.887;-0.378999999999991;4;1;9;6;-107.1166;Chetverikov & Jehee (2023);Experiment 1;Motion;1
4;236.061;233.335;-2.726;4;1;9;7;-42.795;Chetverikov & Jehee (2023);Experiment 1;Motion;1
4;27.62;28.414;0.794000000000011;4;1;9;8;-151.559;Chetverikov & Jehee (2023);Experiment 1;Motion;1
4;19.682;11.724;-7.95799999999997;4;1;9;9;7.93800000000002;Chetverikov & Jehee (2023);Experiment 1;Motion;1
4;145.0695;148.1344;3.06489999999999;4;1;9;10;-125.3875;Chetverikov & Jehee (2023);Experiment 1;Motion;1
4;67.555;77.608;10.053;4;1;9;11;77.5145;Chetverikov & Jehee (2023);Experiment 1;Motion;1
4;356.835;353.452;-3.38300000000004;4;1;9;12;70.72;Chetverikov & Jehee (2023);Experiment 1;Motion;1
4;138.7004;148.6179;9.91749999999999;4;1;9;13;-141.8654;Chetverikov & Jehee (2023);Experiment 1;Motion;1
4;105.1492;107.7154;2.56619999999998;4;1;9;14;33.5512;Chetverikov & Jehee (2023);Experiment 1;Motion;1
4;310.129;303.631;-6.49799999999993;4;1;9;15;155.0202;Chetverikov & Jehee (2023);Experiment 1;Motion;1
4;334.93;333.369;-1.56099999999998;4;1;9;16;-24.801;Chetverikov & Jehee (2023);Experiment 1;Motion;1
4;161.5719;155.0987;-6.47319999999999;4;1;9;17;173.3581;Chetverikov & Jehee (2023);Experiment 1;Motion;1
4;40.451;40.175;-0.275999999999982;4;1;9;18;121.1209;Chetverikov & Jehee (2023);Experiment 1;Motion;1
4;8.13999999999999;8.89099999999999;0.751000000000005;5;1;9;1;32.311;Chetverikov & Jehee (2023);Experiment 1;Motion;1
4;128.144;193.402;65.258;5;1;9;2;-120.004;Chetverikov & Jehee (2023);Experiment 1;Motion;1
4;144.5866;140.4591;-4.1275;5;1;9;3;-16.4426;Chetverikov & Jehee (2023);Experiment 1;Motion;1
4;97.6288;102.1548;4.52600000000001;5;1;9;4;46.9578;Chetverikov & Jehee (2023);Experiment 1;Motion;1
4;250.485;256.519;6.03399999999999;5;1;9;5;-152.8562;Chetverikov & Jehee (2023);Experiment 1;Motion;1
4;29.509;24.295;-5.214;5;1;9;6;-139.024;Chetverikov & Jehee (2023);Experiment 1;Motion;1
4;344.908;342.137;-2.77099999999996;5;1;9;7;44.601;Chetverikov & Jehee (2023);Experiment 1;Motion;1
4;43.346;229.119;-174.227;5;1;9;8;-58.438;Chetverikov & Jehee (2023);Experiment 1;Motion;1
4;279.386;280.699;1.31299999999999;5;1;9;9;123.96;Chetverikov & Jehee (2023);Experiment 1;Motion;1
4;288.153;281.261;-6.89199999999994;5;1;9;10;-8.76699999999994;Chetverikov & Jehee (2023);Experiment 1;Motion;1
4;334.969;328.104;-6.86500000000004;5;1;9;11;-46.816;Chetverikov & Jehee (2023);Experiment 1;Motion;1
4;171.24931;170.68614;-0.563170000000014;5;1;9;12;163.71969;Chetverikov & Jehee (2023);Experiment 1;Motion;1
4;236.34;238.815;2.47500000000002;5;1;9;13;-65.09069;Chetverikov & Jehee (2023);Experiment 1;Motion;1
4;61.882;59.39;-2.49200000000002;5;1;9;14;174.458;Chetverikov & Jehee (2023);Experiment 1;Motion;1
4;190.096;194.176;4.08000000000001;5;1;9;15;-128.214;Chetverikov & Jehee (2023);Experiment 1;Motion;1
4;111.907;108.7246;-3.1824;5;1;9;16;78.189;Chetverikov & Jehee (2023);Experiment 1;Motion;1
4;301.436;292.529;-8.90699999999998;5;1;9;17;170.471;Chetverikov & Jehee (2023);Experiment 1;Motion;1
4;210.576;211.643;1.06699999999995;5;1;9;18;90.8599999999999;Chetverikov & Jehee (2023);Experiment 1;Motion;1
4;255.823;257.716;1.89300000000003;6;1;9;1;-45.2469999999999;Chetverikov & Jehee (2023);Experiment 1;Motion;1
4;328.059;332.939;4.88;6;1;9;2;-72.236;Chetverikov & Jehee (2023);Experiment 1;Motion;1
4;289.081;290.719;1.63800000000003;6;1;9;3;38.978;Chetverikov & Jehee (2023);Experiment 1;Motion;1
4;64.426;68.012;3.58600000000001;6;1;9;4;-135.345;Chetverikov & Jehee (2023);Experiment 1;Motion;1
4;43.066;49.282;6.21600000000001;6;1;9;5;21.36;Chetverikov & Jehee (2023);Experiment 1;Motion;1
4;346.791;345.738;-1.053;6;1;9;6;56.275;Chetverikov & Jehee (2023);Experiment 1;Motion;1
4;161.6312;168.8804;7.2492;6;1;9;7;-174.8402;Chetverikov & Jehee (2023);Experiment 1;Motion;1
4;194.008;191.253;-2.755;6;1;9;8;-32.3768;Chetverikov & Jehee (2023);Experiment 1;Motion;1
4;102.7139;100.6896;-2.02429999999998;6;1;9;9;91.2941;Chetverikov & Jehee (2023);Experiment 1;Motion;1
4;139.4037;134.4083;-4.99540000000002;6;1;9;10;-36.6898;Chetverikov & Jehee (2023);Experiment 1;Motion;1
4;5.06800000000001;6.28800000000001;1.21999999999997;6;1;9;11;134.3357;Chetverikov & Jehee (2023);Experiment 1;Motion;1
4;218.141;230.278;12.137;6;1;9;12;146.927;Chetverikov & Jehee (2023);Experiment 1;Motion;1
4;35.361;50.404;15.043;6;1;9;13;-177.22;Chetverikov & Jehee (2023);Experiment 1;Motion;1
4;231.485;237.258;5.773;6;1;9;14;163.876;Chetverikov & Jehee (2023);Experiment 1;Motion;1
4;89.3113;89.8973;0.586000000000013;6;1;9;15;142.1737;Chetverikov & Jehee (2023);Experiment 1;Motion;1
4;307.987;311.829;3.84200000000004;6;1;9;16;141.3243;Chetverikov & Jehee (2023);Experiment 1;Motion;1
4;157.1358;155.1135;-2.0223;6;1;9;17;150.8512;Chetverikov & Jehee (2023);Experiment 1;Motion;1
4;272.234;264.698;-7.53599999999995;6;1;9;18;-115.0982;Chetverikov & Jehee (2023);Experiment 1;Motion;1
4;316.511;313.441;-3.06999999999997;7;1;9;1;-44.277;Chetverikov & Jehee (2023);Experiment 1;Motion;1
4;248.412;242.256;-6.15600000000003;7;1;9;2;68.099;Chetverikov & Jehee (2023);Experiment 1;Motion;1
4;210.961;215.558;4.59699999999995;7;1;9;3;37.451;Chetverikov & Jehee (2023);Experiment 1;Motion;1
4;260.507;266.579;6.07200000000006;7;1;9;4;-49.546;Chetverikov & Jehee (2023);Experiment 1;Motion;1
4;40.08;49.345;9.26499999999999;7;1;9;5;-139.573;Chetverikov & Jehee (2023);Experiment 1;Motion;1
4;63.14;64.059;0.918999999999983;7;1;9;6;-23.06;Chetverikov & Jehee (2023);Experiment 1;Motion;1
4;36.147;50.89;14.743;7;1;9;7;26.993;Chetverikov & Jehee (2023);Experiment 1;Motion;1
4;341.733;341.763;0.0299999999999727;7;1;9;8;54.414;Chetverikov & Jehee (2023);Experiment 1;Motion;1
4;142.9859;148.6847;5.69880000000001;7;1;9;9;-161.2529;Chetverikov & Jehee (2023);Experiment 1;Motion;1
4;101.5419;111.3428;9.80090000000001;7;1;9;10;41.444;Chetverikov & Jehee (2023);Experiment 1;Motion;1
4;226.357;231.887;5.52999999999997;7;1;9;11;-124.8151;Chetverikov & Jehee (2023);Experiment 1;Motion;1
4;337.886;337.113;-0.773000000000025;7;1;9;12;-111.529;Chetverikov & Jehee (2023);Experiment 1;Motion;1
4;285.849;283.788;-2.06100000000001;7;1;9;13;52.037;Chetverikov & Jehee (2023);Experiment 1;Motion;1
4;1.619;1.101;-0.518000000000001;7;1;9;14;-75.77;Chetverikov & Jehee (2023);Experiment 1;Motion;1
4;137.2131;135.0968;-2.1163;7;1;9;15;-135.5941;Chetverikov & Jehee (2023);Experiment 1;Motion;1
4;97.4807;97.5884;0.107700000000023;7;1;9;16;39.7324;Chetverikov & Jehee (2023);Experiment 1;Motion;1
4;179.732926;181.334;1.60107400000001;7;1;9;17;-82.252226;Chetverikov & Jehee (2023);Experiment 1;Motion;1
4;180.093;184.261;4.16800000000004;7;1;9;18;-0.360074000000026;Chetverikov & Jehee (2023);Experiment 1;Motion;1
4;206.016;204.817;-1.19900000000004;8;1;9;1;-25.923;Chetverikov & Jehee (2023);Experiment 1;Motion;1
4;112.9275;115.1156;2.18810000000002;8;1;9;2;93.0885;Chetverikov & Jehee (2023);Experiment 1;Motion;1
4;91.2148;96.2374;5.02260000000001;8;1;9;3;21.7127;Chetverikov & Jehee (2023);Experiment 1;Motion;1
4;349.864;353.78;3.916;8;1;9;4;101.3508;Chetverikov & Jehee (2023);Experiment 1;Motion;1
4;79.277;75.941;-3.33600000000001;8;1;9;5;-89.413;Chetverikov & Jehee (2023);Experiment 1;Motion;1
4;41.13;56.153;15.023;8;1;9;6;38.147;Chetverikov & Jehee (2023);Experiment 1;Motion;1
4;18.011;25.787;7.77600000000001;8;1;9;7;23.119;Chetverikov & Jehee (2023);Experiment 1;Motion;1
4;224.637;233.121;8.48399999999998;8;1;9;8;153.374;Chetverikov & Jehee (2023);Experiment 1;Motion;1
4;37.24;274.865;-122.375;8;1;9;9;-172.603;Chetverikov & Jehee (2023);Experiment 1;Motion;1
4;312.809;305.386;-7.423;8;1;9;10;84.431;Chetverikov & Jehee (2023);Experiment 1;Motion;1
4;273.338;277.297;3.959;8;1;9;11;39.4709999999999;Chetverikov & Jehee (2023);Experiment 1;Motion;1
4;285.921;283.822;-2.09899999999999;8;1;9;12;-12.5829999999999;Chetverikov & Jehee (2023);Experiment 1;Motion;1
4;193.305;193.559;0.254000000000019;8;1;9;13;92.616;Chetverikov & Jehee (2023);Experiment 1;Motion;1
4;328.453;329.921;1.46799999999996;8;1;9;14;-135.148;Chetverikov & Jehee (2023);Experiment 1;Motion;1
4;249.05;254.036;4.98600000000005;8;1;9;15;79.403;Chetverikov & Jehee (2023);Experiment 1;Motion;1
4;149.1281;154.6711;5.54300000000001;8;1;9;16;99.9219;Chetverikov & Jehee (2023);Experiment 1;Motion;1
4;175.39626;176.93421;1.53795;8;1;9;17;-26.26816;Chetverikov & Jehee (2023);Experiment 1;Motion;1
4;121.3955;124.3845;2.989;8;1;9;18;54.00076;Chetverikov & Jehee (2023);Experiment 1;Motion;1
4;80.7474;86.6832;5.9358;9;1;9;1;40.6481;Chetverikov & Jehee (2023);Experiment 1;Motion;1
4;111.2814;183.614;72.3326;9;1;9;2;-30.534;Chetverikov & Jehee (2023);Experiment 1;Motion;1
4;56.042;79.483;23.441;9;1;9;3;55.2394;Chetverikov & Jehee (2023);Experiment 1;Motion;1
4;126.0448;130.0838;4.03899999999999;9;1;9;4;-70.0028;Chetverikov & Jehee (2023);Experiment 1;Motion;1
4;74.267;76.402;2.13500000000002;9;1;9;5;51.7778;Chetverikov & Jehee (2023);Experiment 1;Motion;1
4;20.584;7.31200000000001;-13.272;9;1;9;6;53.683;Chetverikov & Jehee (2023);Experiment 1;Motion;1
4;338.674;339.389;0.715000000000032;9;1;9;7;41.91;Chetverikov & Jehee (2023);Experiment 1;Motion;1
4;359.343;353.785;-5.55799999999996;9;1;9;8;-20.669;Chetverikov & Jehee (2023);Experiment 1;Motion;1
4;3.024;3.62799999999999;0.603999999999985;9;1;9;9;-3.68100000000004;Chetverikov & Jehee (2023);Experiment 1;Motion;1
4;199.342;197.64;-1.702;9;1;9;10;163.682;Chetverikov & Jehee (2023);Experiment 1;Motion;1
4;270.473;274.282;3.80899999999997;9;1;9;11;-71.1310000000001;Chetverikov & Jehee (2023);Experiment 1;Motion;1
4;239.514;243.003;3.489;9;1;9;12;30.9590000000001;Chetverikov & Jehee (2023);Experiment 1;Motion;1
4;165.4801;173.47268;7.99258;9;1;9;13;74.0339;Chetverikov & Jehee (2023);Experiment 1;Motion;1
4;293.261;285.899;-7.36200000000002;9;1;9;14;-127.7809;Chetverikov & Jehee (2023);Experiment 1;Motion;1
4;152.8184;154.5093;1.6909;9;1;9;15;140.4426;Chetverikov & Jehee (2023);Experiment 1;Motion;1
4;319.718;313.445;-6.27299999999997;9;1;9;16;-166.8996;Chetverikov & Jehee (2023);Experiment 1;Motion;1
4;217.191;226.356;9.16500000000008;9;1;9;17;102.527;Chetverikov & Jehee (2023);Experiment 1;Motion;1
4;255.179;263.078;7.89899999999997;9;1;9;18;-37.988;Chetverikov & Jehee (2023);Experiment 1;Motion;1
4;188.877;190.211;1.334;10;1;9;1;66.302;Chetverikov & Jehee (2023);Experiment 1;Motion;1
4;68.873;311.294;-117.579;10;1;9;2;120.004;Chetverikov & Jehee (2023);Experiment 1;Motion;1
4;274.67;275.153;0.483000000000004;10;1;9;3;154.203;Chetverikov & Jehee (2023);Experiment 1;Motion;1
4;306.689;308.778;2.08900000000006;10;1;9;4;-32.0189999999999;Chetverikov & Jehee (2023);Experiment 1;Motion;1
4;122.8494;124.3323;1.4829;10;1;9;5;-176.1604;Chetverikov & Jehee (2023);Experiment 1;Motion;1
4;116.3409;113.7258;-2.61509999999998;10;1;9;6;6.5085;Chetverikov & Jehee (2023);Experiment 1;Motion;1
4;171.53874;177.65006;6.11132000000001;10;1;9;7;-55.19784;Chetverikov & Jehee (2023);Experiment 1;Motion;1
4;80.1937;82.6886;2.4949;10;1;9;8;91.34504;Chetverikov & Jehee (2023);Experiment 1;Motion;1
4;3.44200000000001;4.37200000000001;0.930000000000007;10;1;9;9;76.7517;Chetverikov & Jehee (2023);Experiment 1;Motion;1
4;159.241;166.9578;7.71680000000001;10;1;9;10;-155.799;Chetverikov & Jehee (2023);Experiment 1;Motion;1
4;257.955;254.481;-3.47399999999999;10;1;9;11;-98.714;Chetverikov & Jehee (2023);Experiment 1;Motion;1
4;291.835;282.651;-9.18399999999997;10;1;9;12;-33.88;Chetverikov & Jehee (2023);Experiment 1;Motion;1
4;32.986;181.75;148.764;10;1;9;13;-101.151;Chetverikov & Jehee (2023);Experiment 1;Motion;1
4;222.293;232.304;10.011;10;1;9;14;170.693;Chetverikov & Jehee (2023);Experiment 1;Motion;1
4;54.848;306.872;-107.976;10;1;9;15;167.445;Chetverikov & Jehee (2023);Experiment 1;Motion;1
4;336.512;341.603;5.09100000000004;10;1;9;16;78.336;Chetverikov & Jehee (2023);Experiment 1;Motion;1
4;216.635;213.016;-3.61899999999994;10;1;9;17;119.877;Chetverikov & Jehee (2023);Experiment 1;Motion;1
4;341.308;337.996;-3.31200000000001;10;1;9;18;-124.673;Chetverikov & Jehee (2023);Experiment 1;Motion;1
4;101.0915;98.8671;-2.2244;11;1;9;1;-119.7835;Chetverikov & Jehee (2023);Experiment 1;Motion;1
4;198.248;196.376;-1.87200000000004;11;1;9;2;-97.1565;Chetverikov & Jehee (2023);Experiment 1;Motion;1
4;253.544;251.48;-2.06399999999996;11;1;9;3;-55.296;Chetverikov & Jehee (2023);Experiment 1;Motion;1
4;352.806;353.799;0.992999999999995;11;1;9;4;-99.2620000000001;Chetverikov & Jehee (2023);Experiment 1;Motion;1
4;169.8187;175.89012;6.07141999999999;11;1;9;5;-177.0127;Chetverikov & Jehee (2023);Experiment 1;Motion;1
4;291.314;283.933;-7.38099999999997;11;1;9;6;-121.4953;Chetverikov & Jehee (2023);Experiment 1;Motion;1
4;121.5078;115.4482;-6.05959999999999;11;1;9;7;169.8062;Chetverikov & Jehee (2023);Experiment 1;Motion;1
4;320.403;308.418;-11.985;11;1;9;8;161.1048;Chetverikov & Jehee (2023);Experiment 1;Motion;1
4;217.306;222.312;5.00600000000006;11;1;9;9;103.097;Chetverikov & Jehee (2023);Experiment 1;Motion;1
4;8.49799999999999;7.91900000000001;-0.578999999999923;11;1;9;10;-151.192;Chetverikov & Jehee (2023);Experiment 1;Motion;1
4;46.346;291.477;-114.869;11;1;9;11;-37.848;Chetverikov & Jehee (2023);Experiment 1;Motion;1
4;223.233;231.795;8.56200000000001;11;1;9;12;-176.887;Chetverikov & Jehee (2023);Experiment 1;Motion;1
4;27.751;26.2;-1.55100000000004;11;1;9;13;-164.518;Chetverikov & Jehee (2023);Experiment 1;Motion;1
4;146.4843;271.456;124.9717;11;1;9;14;-118.7333;Chetverikov & Jehee (2023);Experiment 1;Motion;1
4;81.5454;86.9722;5.42679999999999;11;1;9;15;64.9389;Chetverikov & Jehee (2023);Experiment 1;Motion;1
4;302.339;297.386;-4.95299999999998;11;1;9;16;139.2064;Chetverikov & Jehee (2023);Experiment 1;Motion;1
4;266.374;269.865;3.49099999999996;11;1;9;17;35.9649999999999;Chetverikov & Jehee (2023);Experiment 1;Motion;1
4;75.552;80.1768;4.62479999999997;11;1;9;18;-169.178;Chetverikov & Jehee (2023);Experiment 1;Motion;1
4;123.8404;129.8428;6.00239999999999;12;1;9;1;-48.2884;Chetverikov & Jehee (2023);Experiment 1;Motion;1
4;250.614;248.822;-1.79200000000003;12;1;9;2;-126.7736;Chetverikov & Jehee (2023);Experiment 1;Motion;1
4;82.8179;81.3597;-1.45819999999998;12;1;9;3;167.7961;Chetverikov & Jehee (2023);Experiment 1;Motion;1
4;317.804;311.584;-6.21999999999997;12;1;9;4;125.0139;Chetverikov & Jehee (2023);Experiment 1;Motion;1
4;339.852;334.76;-5.09200000000004;12;1;9;5;-22.048;Chetverikov & Jehee (2023);Experiment 1;Motion;1
4;183.532;186.159;2.62699999999998;12;1;9;6;156.32;Chetverikov & Jehee (2023);Experiment 1;Motion;1
4;222.171;220.888;-1.28300000000004;12;1;9;7;-38.639;Chetverikov & Jehee (2023);Experiment 1;Motion;1
4;24.167;20.949;-3.21799999999999;12;1;9;8;-161.996;Chetverikov & Jehee (2023);Experiment 1;Motion;1
4;344.751;340.189;-4.56200000000001;12;1;9;9;39.4160000000001;Chetverikov & Jehee (2023);Experiment 1;Motion;1
4;10.393;9.30600000000001;-1.08699999999996;12;1;9;10;-25.6420000000001;Chetverikov & Jehee (2023);Experiment 1;Motion;1
4;78.723;84.6216;5.89859999999999;12;1;9;11;-68.33;Chetverikov & Jehee (2023);Experiment 1;Motion;1
4;56.289;67.198;10.909;12;1;9;12;22.434;Chetverikov & Jehee (2023);Experiment 1;Motion;1
4;154.4599;151.7574;-2.70250000000002;12;1;9;13;-98.1709;Chetverikov & Jehee (2023);Experiment 1;Motion;1
4;116.0976;122.5844;6.48680000000002;12;1;9;14;38.3623;Chetverikov & Jehee (2023);Experiment 1;Motion;1
4;284.092;288.019;3.92700000000002;12;1;9;15;-167.9944;Chetverikov & Jehee (2023);Experiment 1;Motion;1
4;276.249;281.984;5.73499999999993;12;1;9;16;7.84299999999996;Chetverikov & Jehee (2023);Experiment 1;Motion;1
4;168.807;174.98986;6.18286000000001;12;1;9;17;107.442;Chetverikov & Jehee (2023);Experiment 1;Motion;1
4;215.662;204.722;-10.94;12;1;9;18;-46.855;Chetverikov & Jehee (2023);Experiment 1;Motion;1
9;101.5018;225.893;124.3912;1;1;9;1;NaN;Chetverikov & Jehee (2023);Experiment 1;Motion;1
9;266.158;110.6489;-155.5091;1;1;9;2;-164.6562;Chetverikov & Jehee (2023);Experiment 1;Motion;1
9;63.128;62.776;-0.351999999999975;1;1;9;3;-156.97;Chetverikov & Jehee (2023);Experiment 1;Motion;1
9;39.964;320.432;-79.532;1;1;9;4;23.164;Chetverikov & Jehee (2023);Experiment 1;Motion;1
9;208.317;120.0243;-88.2927000000001;1;1;9;5;-168.353;Chetverikov & Jehee (2023);Experiment 1;Motion;1
9;235.765;238.395;2.63000000000002;1;1;9;6;-27.448;Chetverikov & Jehee (2023);Experiment 1;Motion;1
9;57.066;120.1417;63.0757;1;1;9;7;178.699;Chetverikov & Jehee (2023);Experiment 1;Motion;1
9;6.69200000000001;16.45;9.75799999999998;1;1;9;8;50.374;Chetverikov & Jehee (2023);Experiment 1;Motion;1
9;305.049;311.463;6.4140000000001;1;1;9;9;61.643;Chetverikov & Jehee (2023);Experiment 1;Motion;1
9;324.579;331.248;6.66900000000001;1;1;9;10;-19.53;Chetverikov & Jehee (2023);Experiment 1;Motion;1
9;139.1975;144.6777;5.48020000000003;1;1;9;11;-174.6185;Chetverikov & Jehee (2023);Experiment 1;Motion;1
9;253.182;352.702;99.5200000000001;1;1;9;12;-113.9845;Chetverikov & Jehee (2023);Experiment 1;Motion;1
9;348.998;344.407;-4.59099999999998;1;1;9;13;-95.816;Chetverikov & Jehee (2023);Experiment 1;Motion;1
9;84.2347;81.3554;-2.8793;1;1;9;14;-95.2367;Chetverikov & Jehee (2023);Experiment 1;Motion;1
9;153.3538;148.2911;-5.06270000000001;1;1;9;15;-69.1191;Chetverikov & Jehee (2023);Experiment 1;Motion;1
9;177.73683;169.8857;-7.85113000000001;1;1;9;16;-24.38303;Chetverikov & Jehee (2023);Experiment 1;Motion;1
9;297.648;190.223;-107.425;1;1;9;17;-119.91117;Chetverikov & Jehee (2023);Experiment 1;Motion;1
9;193.887;201.438;7.55100000000002;1;1;9;18;103.761;Chetverikov & Jehee (2023);Experiment 1;Motion;1
9;175.63542;161.6635;-13.97192;2;1;9;1;18.25158;Chetverikov & Jehee (2023);Experiment 1;Motion;1
9;319.127;316.301;-2.82600000000002;2;1;9;2;-143.49158;Chetverikov & Jehee (2023);Experiment 1;Motion;1
9;353.964;346.341;-7.62300000000005;2;1;9;3;-34.837;Chetverikov & Jehee (2023);Experiment 1;Motion;1
9;158.4362;151.1171;-7.31909999999999;2;1;9;4;-164.4722;Chetverikov & Jehee (2023);Experiment 1;Motion;1
9;235.222;226.722;-8.50000000000003;2;1;9;5;-76.7858;Chetverikov & Jehee (2023);Experiment 1;Motion;1
9;53.558;63.626;10.068;2;1;9;6;-178.336;Chetverikov & Jehee (2023);Experiment 1;Motion;1
9;116.8371;16.298;-100.5391;2;1;9;7;-63.2791;Chetverikov & Jehee (2023);Experiment 1;Motion;1
9;323.771;169.0365;-154.7345;2;1;9;8;153.0661;Chetverikov & Jehee (2023);Experiment 1;Motion;1
9;252.783;256.068;3.28499999999997;2;1;9;9;70.9879999999999;Chetverikov & Jehee (2023);Experiment 1;Motion;1
9;26.168;346.846;-39.322;2;1;9;10;-133.385;Chetverikov & Jehee (2023);Experiment 1;Motion;1
9;196.581;213.37;16.789;2;1;9;11;-170.413;Chetverikov & Jehee (2023);Experiment 1;Motion;1
9;210.326;137.4609;-72.8651;2;1;9;12;-13.745;Chetverikov & Jehee (2023);Experiment 1;Motion;1
9;292.794;318.331;25.537;2;1;9;13;-82.468;Chetverikov & Jehee (2023);Experiment 1;Motion;1
9;64.531;97.4015;32.8705;2;1;9;14;-131.737;Chetverikov & Jehee (2023);Experiment 1;Motion;1
9;265.167;272.625;7.45800000000003;2;1;9;15;159.364;Chetverikov & Jehee (2023);Experiment 1;Motion;1
9;82.9068;75.627;-7.27980000000002;2;1;9;16;-177.7398;Chetverikov & Jehee (2023);Experiment 1;Motion;1
9;137.2661;257.22;119.9539;2;1;9;17;-54.3593;Chetverikov & Jehee (2023);Experiment 1;Motion;1
9;13.454;28.524;15.07;2;1;9;18;123.8121;Chetverikov & Jehee (2023);Experiment 1;Motion;1
9;141.4378;259.201;117.7632;3;1;9;1;-127.9838;Chetverikov & Jehee (2023);Experiment 1;Motion;1
9;323.089;333;9.91100000000003;3;1;9;2;178.3488;Chetverikov & Jehee (2023);Experiment 1;Motion;1
9;161.0075;155.9115;-5.096;3;1;9;3;162.0815;Chetverikov & Jehee (2023);Experiment 1;Motion;1
9;250.16;251.755;1.59499999999991;3;1;9;4;-89.1525000000001;Chetverikov & Jehee (2023);Experiment 1;Motion;1
9;298.471;289.532;-8.93899999999997;3;1;9;5;-48.3109999999999;Chetverikov & Jehee (2023);Experiment 1;Motion;1
9;221.638;153.6354;-68.0025999999999;3;1;9;6;76.833;Chetverikov & Jehee (2023);Experiment 1;Motion;1
9;88.7214;84.9181;-3.80329999999998;3;1;9;7;132.9166;Chetverikov & Jehee (2023);Experiment 1;Motion;1
9;188.912;197.316;8.40399999999997;3;1;9;8;-100.1906;Chetverikov & Jehee (2023);Experiment 1;Motion;1
9;25.718;34.843;9.12499999999994;3;1;9;9;163.194;Chetverikov & Jehee (2023);Experiment 1;Motion;1
9;353.266;343.433;-9.83300000000006;3;1;9;10;32.452;Chetverikov & Jehee (2023);Experiment 1;Motion;1
9;75.691;64.97;-10.721;3;1;9;11;-82.4250000000001;Chetverikov & Jehee (2023);Experiment 1;Motion;1
9;216.333;336.202;119.869;3;1;9;12;-140.642;Chetverikov & Jehee (2023);Experiment 1;Motion;1
9;7.21799999999999;353.497;-13.721;3;1;9;13;-150.885;Chetverikov & Jehee (2023);Experiment 1;Motion;1
9;278.119;122.0454;-156.0736;3;1;9;14;89.0989999999999;Chetverikov & Jehee (2023);Experiment 1;Motion;1
9;311.94;219.197;-92.7430000000001;3;1;9;15;-33.821;Chetverikov & Jehee (2023);Experiment 1;Motion;1
9;116.8717;19.668;-97.2037;3;1;9;16;-164.9317;Chetverikov & Jehee (2023);Experiment 1;Motion;1
9;58.989;48.726;-10.263;3;1;9;17;57.8827;Chetverikov & Jehee (2023);Experiment 1;Motion;1
9;120.6221;195.911;75.2889;3;1;9;18;-61.6331;Chetverikov & Jehee (2023);Experiment 1;Motion;1
9;230.926;342.457;111.531;4;1;9;1;-110.3039;Chetverikov & Jehee (2023);Experiment 1;Motion;1
9;162.938;164.6904;1.75239999999999;4;1;9;2;67.988;Chetverikov & Jehee (2023);Experiment 1;Motion;1
9;187.673;195.37;7.69700000000003;4;1;9;3;-24.735;Chetverikov & Jehee (2023);Experiment 1;Motion;1
9;44.859;154.444;109.585;4;1;9;4;142.814;Chetverikov & Jehee (2023);Experiment 1;Motion;1
9;62.026;66.651;4.62500000000003;4;1;9;5;-17.167;Chetverikov & Jehee (2023);Experiment 1;Motion;1
9;280.553;24.529;103.976;4;1;9;6;141.473;Chetverikov & Jehee (2023);Experiment 1;Motion;1
9;250.809;264.91;14.101;4;1;9;7;29.7439999999999;Chetverikov & Jehee (2023);Experiment 1;Motion;1
9;274.667;28.388;113.721;4;1;9;8;-23.8579999999999;Chetverikov & Jehee (2023);Experiment 1;Motion;1
9;93.6813;214.47;120.7887;4;1;9;9;-179.0143;Chetverikov & Jehee (2023);Experiment 1;Motion;1
9;37.316;152.5843;115.2683;4;1;9;10;56.3653;Chetverikov & Jehee (2023);Experiment 1;Motion;1
9;127.0654;53.947;-73.1184;4;1;9;11;-89.7494;Chetverikov & Jehee (2023);Experiment 1;Motion;1
9;354.283;347.179;-7.10400000000001;4;1;9;12;132.7824;Chetverikov & Jehee (2023);Experiment 1;Motion;1
9;140.1069;143.7676;3.66069999999999;4;1;9;13;-145.8239;Chetverikov & Jehee (2023);Experiment 1;Motion;1
9;110.6322;300.401;-170.2312;4;1;9;14;29.4747;Chetverikov & Jehee (2023);Experiment 1;Motion;1
9;216.82;25.613;168.793;4;1;9;15;-106.1878;Chetverikov & Jehee (2023);Experiment 1;Motion;1
9;304.398;112.1339;167.7359;4;1;9;16;-87.578;Chetverikov & Jehee (2023);Experiment 1;Motion;1
9;14.53;21.629;7.09899999999999;4;1;9;17;-70.1319999999999;Chetverikov & Jehee (2023);Experiment 1;Motion;1
9;338.607;332.898;-5.709;4;1;9;18;35.923;Chetverikov & Jehee (2023);Experiment 1;Motion;1
9;268.041;260.535;-7.50599999999997;5;1;9;1;70.566;Chetverikov & Jehee (2023);Experiment 1;Motion;1
9;333.47;313.184;-20.286;5;1;9;2;-65.429;Chetverikov & Jehee (2023);Experiment 1;Motion;1
9;352.062;341.589;-10.473;5;1;9;3;-18.592;Chetverikov & Jehee (2023);Experiment 1;Motion;1
9;302.913;161.6185;-141.2945;5;1;9;4;49.149;Chetverikov & Jehee (2023);Experiment 1;Motion;1
9;197.114;205.096;7.98200000000009;5;1;9;5;105.799;Chetverikov & Jehee (2023);Experiment 1;Motion;1
