obs;theta;resp;trial;block;rt;error;delta;study;experiment;stimulus;expnum
1;114;118;1;1;9;4;NaN;Fischer & Whitney (2014);Experiment 1b;Orientation;1
1;19;21;2;1;9;2;-85;Fischer & Whitney (2014);Experiment 1b;Orientation;1
1;1;12;3;1;9;11;18;Fischer & Whitney (2014);Experiment 1b;Orientation;1
1;82;73;4;1;9;-9;-81;Fischer & Whitney (2014);Experiment 1b;Orientation;1
1;151;157;5;1;9;6;-69;Fischer & Whitney (2014);Experiment 1b;Orientation;1
1;107;125;6;1;9;18;44;Fischer & Whitney (2014);Experiment 1b;Orientation;1
1;119;120;7;1;9;1;-12;Fischer & Whitney (2014);Experiment 1b;Orientation;1
1;51;63;8;1;9;12;68;Fischer & Whitney (2014);Experiment 1b;Orientation;1
1;35;60;9;1;9;25;16;Fischer & Whitney (2014);Experiment 1b;Orientation;1
1;151;149;10;1;9;-2;64;Fischer & Whitney (2014);Experiment 1b;Orientation;1
1;76;66;11;1;9;-10;75;Fischer & Whitney (2014);Experiment 1b;Orientation;1
1;39;54;12;1;9;15;37;Fischer & Whitney (2014);Experiment 1b;Orientation;1
1;171;169;13;1;9;-2;48;Fischer & Whitney (2014);Experiment 1b;Orientation;1
1;123;129;14;1;9;6;48;Fischer & Whitney (2014);Experiment 1b;Orientation;1
1;22;23;15;1;9;1;-79;Fischer & Whitney (2014);Experiment 1b;Orientation;1
1;148;146;16;1;9;-2;54;Fischer & Whitney (2014);Experiment 1b;Orientation;1
1;173;170;17;1;9;-3;-25;Fischer & Whitney (2014);Experiment 1b;Orientation;1
1;105;109;18;1;9;4;68;Fischer & Whitney (2014);Experiment 1b;Orientation;1
1;141;134;19;1;9;-7;-36;Fischer & Whitney (2014);Experiment 1b;Orientation;1
1;42;64;20;1;9;22;-81;Fischer & Whitney (2014);Experiment 1b;Orientation;1
1;20;37;21;1;9;17;22;Fischer & Whitney (2014);Experiment 1b;Orientation;1
1;156;157;22;1;9;1;44;Fischer & Whitney (2014);Experiment 1b;Orientation;1
1;42;47;23;1;9;5;-66;Fischer & Whitney (2014);Experiment 1b;Orientation;1
1;66;56;24;1;9;-10;-24;Fischer & Whitney (2014);Experiment 1b;Orientation;1
1;79;68;25;1;9;-11;-13;Fischer & Whitney (2014);Experiment 1b;Orientation;1
1;98;113;26;1;9;15;-19;Fischer & Whitney (2014);Experiment 1b;Orientation;1
1;110;111;27;1;9;1;-12;Fischer & Whitney (2014);Experiment 1b;Orientation;1
1;150;156;28;1;9;6;-40;Fischer & Whitney (2014);Experiment 1b;Orientation;1
1;151;159;29;1;9;8;-1;Fischer & Whitney (2014);Experiment 1b;Orientation;1
1;139;153;30;1;9;14;12;Fischer & Whitney (2014);Experiment 1b;Orientation;1
1;65;69;31;1;9;4;74;Fischer & Whitney (2014);Experiment 1b;Orientation;1
1;110;114;32;1;9;4;-45;Fischer & Whitney (2014);Experiment 1b;Orientation;1
1;125;120;33;1;9;-5;-15;Fischer & Whitney (2014);Experiment 1b;Orientation;1
1;152;147;34;1;9;-5;-27;Fischer & Whitney (2014);Experiment 1b;Orientation;1
1;23;21;35;1;9;-2;-51;Fischer & Whitney (2014);Experiment 1b;Orientation;1
1;15;15;36;1;9;0;8;Fischer & Whitney (2014);Experiment 1b;Orientation;1
1;93;110;37;1;9;17;-78;Fischer & Whitney (2014);Experiment 1b;Orientation;1
1;122;114;38;1;9;-8;-29;Fischer & Whitney (2014);Experiment 1b;Orientation;1
1;137;144;39;1;9;7;-15;Fischer & Whitney (2014);Experiment 1b;Orientation;1
1;154;156;40;1;9;2;-17;Fischer & Whitney (2014);Experiment 1b;Orientation;1
1;163;150;41;1;9;-13;-9;Fischer & Whitney (2014);Experiment 1b;Orientation;1
1;119;118;42;1;9;-1;44;Fischer & Whitney (2014);Experiment 1b;Orientation;1
1;40;39;43;1;9;-1;79;Fischer & Whitney (2014);Experiment 1b;Orientation;1
1;141;141;44;1;9;0;79;Fischer & Whitney (2014);Experiment 1b;Orientation;1
1;129;138;45;1;9;9;12;Fischer & Whitney (2014);Experiment 1b;Orientation;1
1;166;161;46;1;9;-5;-37;Fischer & Whitney (2014);Experiment 1b;Orientation;1
1;114;121;47;1;9;7;52;Fischer & Whitney (2014);Experiment 1b;Orientation;1
1;30;33;48;1;9;3;84;Fischer & Whitney (2014);Experiment 1b;Orientation;1
1;127;118;49;1;9;-9;83;Fischer & Whitney (2014);Experiment 1b;Orientation;1
1;15;28;50;1;9;13;-68;Fischer & Whitney (2014);Experiment 1b;Orientation;1
1;94;109;51;1;9;15;-79;Fischer & Whitney (2014);Experiment 1b;Orientation;1
1;143;142;52;1;9;-1;-49;Fischer & Whitney (2014);Experiment 1b;Orientation;1
1;64;67;53;1;9;3;79;Fischer & Whitney (2014);Experiment 1b;Orientation;1
1;81;72;54;1;9;-9;-17;Fischer & Whitney (2014);Experiment 1b;Orientation;1
1;72;71;55;1;9;-1;9;Fischer & Whitney (2014);Experiment 1b;Orientation;1
1;119;119;56;1;9;0;-47;Fischer & Whitney (2014);Experiment 1b;Orientation;1
1;96;111;57;1;9;15;23;Fischer & Whitney (2014);Experiment 1b;Orientation;1
1;95;110;58;1;9;15;1;Fischer & Whitney (2014);Experiment 1b;Orientation;1
1;22;24;59;1;9;2;73;Fischer & Whitney (2014);Experiment 1b;Orientation;1
1;169;161;60;1;9;-8;33;Fischer & Whitney (2014);Experiment 1b;Orientation;1
1;172;163;61;1;9;-9;-3;Fischer & Whitney (2014);Experiment 1b;Orientation;1
1;113;114;62;1;9;1;59;Fischer & Whitney (2014);Experiment 1b;Orientation;1
1;109;109;63;1;9;0;4;Fischer & Whitney (2014);Experiment 1b;Orientation;1
1;168;166;64;1;9;-2;-59;Fischer & Whitney (2014);Experiment 1b;Orientation;1
1;50;62;65;1;9;12;-62;Fischer & Whitney (2014);Experiment 1b;Orientation;1
1;11;13;66;1;9;2;39;Fischer & Whitney (2014);Experiment 1b;Orientation;1
1;174;176;67;1;9;2;17;Fischer & Whitney (2014);Experiment 1b;Orientation;1
1;38;29;68;1;9;-9;-44;Fischer & Whitney (2014);Experiment 1b;Orientation;1
1;51;57;69;1;9;6;-13;Fischer & Whitney (2014);Experiment 1b;Orientation;1
1;125;124;70;1;9;-1;-74;Fischer & Whitney (2014);Experiment 1b;Orientation;1
1;163;156;71;1;9;-7;-38;Fischer & Whitney (2014);Experiment 1b;Orientation;1
1;162;151;72;1;9;-11;1;Fischer & Whitney (2014);Experiment 1b;Orientation;1
1;150;150;73;1;9;0;12;Fischer & Whitney (2014);Experiment 1b;Orientation;1
1;162;151;74;1;9;-11;-12;Fischer & Whitney (2014);Experiment 1b;Orientation;1
1;136;143;75;1;9;7;26;Fischer & Whitney (2014);Experiment 1b;Orientation;1
1;129;132;76;1;9;3;7;Fischer & Whitney (2014);Experiment 1b;Orientation;1
1;23;23;77;1;9;0;-74;Fischer & Whitney (2014);Experiment 1b;Orientation;1
1;98;104;78;1;9;6;-75;Fischer & Whitney (2014);Experiment 1b;Orientation;1
1;88;101;79;1;9;13;10;Fischer & Whitney (2014);Experiment 1b;Orientation;1
1;136;123;80;1;9;-13;-48;Fischer & Whitney (2014);Experiment 1b;Orientation;1
1;153;153;81;1;9;0;-17;Fischer & Whitney (2014);Experiment 1b;Orientation;1
1;172;159;82;1;9;-13;-19;Fischer & Whitney (2014);Experiment 1b;Orientation;1
1;101;108;83;1;9;7;71;Fischer & Whitney (2014);Experiment 1b;Orientation;1
1;102;111;84;1;9;9;-1;Fischer & Whitney (2014);Experiment 1b;Orientation;1
1;170;170;85;1;9;0;-68;Fischer & Whitney (2014);Experiment 1b;Orientation;1
1;14;14;86;1;9;0;-24;Fischer & Whitney (2014);Experiment 1b;Orientation;1
1;108;107;87;1;9;-1;86;Fischer & Whitney (2014);Experiment 1b;Orientation;1
1;92;86;88;1;9;-6;16;Fischer & Whitney (2014);Experiment 1b;Orientation;1
1;39;47;89;1;9;8;53;Fischer & Whitney (2014);Experiment 1b;Orientation;1
1;34;39;90;1;9;5;5;Fischer & Whitney (2014);Experiment 1b;Orientation;1
1;18;29;91;1;9;11;16;Fischer & Whitney (2014);Experiment 1b;Orientation;1
1;104;106;92;1;9;2;-86;Fischer & Whitney (2014);Experiment 1b;Orientation;1
1;154;154;93;1;9;0;-50;Fischer & Whitney (2014);Experiment 1b;Orientation;1
1;100;104;94;1;9;4;54;Fischer & Whitney (2014);Experiment 1b;Orientation;1
1;126;130;95;1;9;4;-26;Fischer & Whitney (2014);Experiment 1b;Orientation;1
1;176;164;96;1;9;-12;-50;Fischer & Whitney (2014);Experiment 1b;Orientation;1
1;136;133;97;1;9;-3;40;Fischer & Whitney (2014);Experiment 1b;Orientation;1
1;165;165;98;1;9;0;-29;Fischer & Whitney (2014);Experiment 1b;Orientation;1
1;49;52;99;1;9;3;-64;Fischer & Whitney (2014);Experiment 1b;Orientation;1
1;93;100;100;1;9;7;-44;Fischer & Whitney (2014);Experiment 1b;Orientation;1
1;7;16;101;1;9;9;86;Fischer & Whitney (2014);Experiment 1b;Orientation;1
1;149;164;102;1;9;15;38;Fischer & Whitney (2014);Experiment 1b;Orientation;1
1;0;176;103;1;9;-4;-31;Fischer & Whitney (2014);Experiment 1b;Orientation;1
1;62;74;104;1;9;12;-62;Fischer & Whitney (2014);Experiment 1b;Orientation;1
1;54;61;1;2;9;7;8;Fischer & Whitney (2014);Experiment 1b;Orientation;1
1;17;25;2;2;9;8;37;Fischer & Whitney (2014);Experiment 1b;Orientation;1
1;101;110;3;2;9;9;-84;Fischer & Whitney (2014);Experiment 1b;Orientation;1
1;124;122;4;2;9;-2;-23;Fischer & Whitney (2014);Experiment 1b;Orientation;1
1;86;100;5;2;9;14;38;Fischer & Whitney (2014);Experiment 1b;Orientation;1
1;147;139;6;2;9;-8;-61;Fischer & Whitney (2014);Experiment 1b;Orientation;1
1;31;36;7;2;9;5;-64;Fischer & Whitney (2014);Experiment 1b;Orientation;1
1;54;40;8;2;9;-14;-23;Fischer & Whitney (2014);Experiment 1b;Orientation;1
1;179;179;9;2;9;0;55;Fischer & Whitney (2014);Experiment 1b;Orientation;1
1;50;49;10;2;9;-1;-51;Fischer & Whitney (2014);Experiment 1b;Orientation;1
1;166;167;11;2;9;1;64;Fischer & Whitney (2014);Experiment 1b;Orientation;1
1;62;61;12;2;9;-1;-76;Fischer & Whitney (2014);Experiment 1b;Orientation;1
1;150;159;13;2;9;9;-88;Fischer & Whitney (2014);Experiment 1b;Orientation;1
1;2;7;14;2;9;5;-32;Fischer & Whitney (2014);Experiment 1b;Orientation;1
1;130;123;15;2;9;-7;52;Fischer & Whitney (2014);Experiment 1b;Orientation;1
1;78;75;16;2;9;-3;52;Fischer & Whitney (2014);Experiment 1b;Orientation;1
1;137;126;17;2;9;-11;-59;Fischer & Whitney (2014);Experiment 1b;Orientation;1
1;35;41;18;2;9;6;-78;Fischer & Whitney (2014);Experiment 1b;Orientation;1
1;117;117;19;2;9;0;-82;Fischer & Whitney (2014);Experiment 1b;Orientation;1
1;122;117;20;2;9;-5;-5;Fischer & Whitney (2014);Experiment 1b;Orientation;1
1;144;136;21;2;9;-8;-22;Fischer & Whitney (2014);Experiment 1b;Orientation;1
1;44;51;22;2;9;7;-80;Fischer & Whitney (2014);Experiment 1b;Orientation;1
1;88;80;23;2;9;-8;-44;Fischer & Whitney (2014);Experiment 1b;Orientation;1
1;87;77;24;2;9;-10;1;Fischer & Whitney (2014);Experiment 1b;Orientation;1
1;99;106;25;2;9;7;-12;Fischer & Whitney (2014);Experiment 1b;Orientation;1
1;1;14;26;2;9;13;-82;Fischer & Whitney (2014);Experiment 1b;Orientation;1
1;136;148;27;2;9;12;45;Fischer & Whitney (2014);Experiment 1b;Orientation;1
1;156;150;28;2;9;-6;-20;Fischer & Whitney (2014);Experiment 1b;Orientation;1
1;177;168;29;2;9;-9;-21;Fischer & Whitney (2014);Experiment 1b;Orientation;1
1;129;141;30;2;9;12;48;Fischer & Whitney (2014);Experiment 1b;Orientation;1
1;104;110;31;2;9;6;25;Fischer & Whitney (2014);Experiment 1b;Orientation;1
1;171;172;32;2;9;1;-67;Fischer & Whitney (2014);Experiment 1b;Orientation;1
1;45;45;33;2;9;0;-54;Fischer & Whitney (2014);Experiment 1b;Orientation;1
1;17;39;34;2;9;22;28;Fischer & Whitney (2014);Experiment 1b;Orientation;1
1;61;59;35;2;9;-2;-44;Fischer & Whitney (2014);Experiment 1b;Orientation;1
1;26;35;36;2;9;9;35;Fischer & Whitney (2014);Experiment 1b;Orientation;1
1;59;44;37;2;9;-15;-33;Fischer & Whitney (2014);Experiment 1b;Orientation;1
1;37;47;38;2;9;10;22;Fischer & Whitney (2014);Experiment 1b;Orientation;1
1;163;161;39;2;9;-2;54;Fischer & Whitney (2014);Experiment 1b;Orientation;1
1;128;152;40;2;9;24;35;Fischer & Whitney (2014);Experiment 1b;Orientation;1
1;24;21;41;2;9;-3;-76;Fischer & Whitney (2014);Experiment 1b;Orientation;1
1;11;15;42;2;9;4;13;Fischer & Whitney (2014);Experiment 1b;Orientation;1
1;137;134;43;2;9;-3;54;Fischer & Whitney (2014);Experiment 1b;Orientation;1
1;152;138;44;2;9;-14;-15;Fischer & Whitney (2014);Experiment 1b;Orientation;1
1;125;138;45;2;9;13;27;Fischer & Whitney (2014);Experiment 1b;Orientation;1
1;174;161;46;2;9;-13;-49;Fischer & Whitney (2014);Experiment 1b;Orientation;1
1;36;46;47;2;9;10;-42;Fischer & Whitney (2014);Experiment 1b;Orientation;1
1;59;60;48;2;9;1;-23;Fischer & Whitney (2014);Experiment 1b;Orientation;1
1;157;162;49;2;9;5;82;Fischer & Whitney (2014);Experiment 1b;Orientation;1
1;114;126;50;2;9;12;43;Fischer & Whitney (2014);Experiment 1b;Orientation;1
1;98;112;51;2;9;14;16;Fischer & Whitney (2014);Experiment 1b;Orientation;1
1;174;159;52;2;9;-15;-76;Fischer & Whitney (2014);Experiment 1b;Orientation;1
1;102;107;53;2;9;5;72;Fischer & Whitney (2014);Experiment 1b;Orientation;1
1;51;63;54;2;9;12;51;Fischer & Whitney (2014);Experiment 1b;Orientation;1
1;120;124;55;2;9;4;-69;Fischer & Whitney (2014);Experiment 1b;Orientation;1
1;84;68;56;2;9;-16;36;Fischer & Whitney (2014);Experiment 1b;Orientation;1
1;140;146;57;2;9;6;-56;Fischer & Whitney (2014);Experiment 1b;Orientation;1
1;172;163;58;2;9;-9;-32;Fischer & Whitney (2014);Experiment 1b;Orientation;1
1;60;58;59;2;9;-2;-68;Fischer & Whitney (2014);Experiment 1b;Orientation;1
1;146;156;60;2;9;10;-86;Fischer & Whitney (2014);Experiment 1b;Orientation;1
1;79;73;61;2;9;-6;67;Fischer & Whitney (2014);Experiment 1b;Orientation;1
1;178;171;62;2;9;-7;81;Fischer & Whitney (2014);Experiment 1b;Orientation;1
1;150;166;63;2;9;16;28;Fischer & Whitney (2014);Experiment 1b;Orientation;1
1;142;157;64;2;9;15;8;Fischer & Whitney (2014);Experiment 1b;Orientation;1
1;141;156;65;2;9;15;1;Fischer & Whitney (2014);Experiment 1b;Orientation;1
1;70;74;66;2;9;4;71;Fischer & Whitney (2014);Experiment 1b;Orientation;1
1;103;111;67;2;9;8;-33;Fischer & Whitney (2014);Experiment 1b;Orientation;1
1;132;115;68;2;9;-17;-29;Fischer & Whitney (2014);Experiment 1b;Orientation;1
1;17;22;69;2;9;5;-65;Fischer & Whitney (2014);Experiment 1b;Orientation;1
1;99;100;70;2;9;1;-82;Fischer & Whitney (2014);Experiment 1b;Orientation;1
1;59;72;71;2;9;13;40;Fischer & Whitney (2014);Experiment 1b;Orientation;1
1;129;142;72;2;9;13;-70;Fischer & Whitney (2014);Experiment 1b;Orientation;1
1;119;124;73;2;9;5;10;Fischer & Whitney (2014);Experiment 1b;Orientation;1
1;22;21;74;2;9;-1;-83;Fischer & Whitney (2014);Experiment 1b;Orientation;1
1;105;115;75;2;9;10;-83;Fischer & Whitney (2014);Experiment 1b;Orientation;1
1;126;118;76;2;9;-8;-21;Fischer & Whitney (2014);Experiment 1b;Orientation;1
1;168;170;77;2;9;2;-42;Fischer & Whitney (2014);Experiment 1b;Orientation;1
1;89;80;78;2;9;-9;79;Fischer & Whitney (2014);Experiment 1b;Orientation;1
1;49;68;79;2;9;19;40;Fischer & Whitney (2014);Experiment 1b;Orientation;1
1;69;66;80;2;9;-3;-20;Fischer & Whitney (2014);Experiment 1b;Orientation;1
1;126;119;81;2;9;-7;-57;Fischer & Whitney (2014);Experiment 1b;Orientation;1
1;44;52;82;2;9;8;82;Fischer & Whitney (2014);Experiment 1b;Orientation;1
1;60;67;83;2;9;7;-16;Fischer & Whitney (2014);Experiment 1b;Orientation;1
1;82;70;84;2;9;-12;-22;Fischer & Whitney (2014);Experiment 1b;Orientation;1
1;129;121;85;2;9;-8;-47;Fischer & Whitney (2014);Experiment 1b;Orientation;1
1;166;164;86;2;9;-2;-37;Fischer & Whitney (2014);Experiment 1b;Orientation;1
1;59;65;87;2;9;6;-73;Fischer & Whitney (2014);Experiment 1b;Orientation;1
1;58;65;88;2;9;7;1;Fischer & Whitney (2014);Experiment 1b;Orientation;1
1;63;64;89;2;9;1;-5;Fischer & Whitney (2014);Experiment 1b;Orientation;1
1;50;64;90;2;9;14;13;Fischer & Whitney (2014);Experiment 1b;Orientation;1
1;121;123;91;2;9;2;-71;Fischer & Whitney (2014);Experiment 1b;Orientation;1
1;176;172;92;2;9;-4;-55;Fischer & Whitney (2014);Experiment 1b;Orientation;1
1;111;113;93;2;9;2;65;Fischer & Whitney (2014);Experiment 1b;Orientation;1
1;59;65;94;2;9;6;52;Fischer & Whitney (2014);Experiment 1b;Orientation;1
1;100;109;95;2;9;9;-41;Fischer & Whitney (2014);Experiment 1b;Orientation;1
1;35;43;96;2;9;8;65;Fischer & Whitney (2014);Experiment 1b;Orientation;1
1;70;51;97;2;9;-19;-35;Fischer & Whitney (2014);Experiment 1b;Orientation;1
1;9;22;98;2;9;13;61;Fischer & Whitney (2014);Experiment 1b;Orientation;1
1;174;1;99;2;9;7;15;Fischer & Whitney (2014);Experiment 1b;Orientation;1
1;79;69;100;2;9;-10;-85;Fischer & Whitney (2014);Experiment 1b;Orientation;1
1;149;144;101;2;9;-5;-70;Fischer & Whitney (2014);Experiment 1b;Orientation;1
1;82;72;102;2;9;-10;67;Fischer & Whitney (2014);Experiment 1b;Orientation;1
1;135;139;103;2;9;4;-53;Fischer & Whitney (2014);Experiment 1b;Orientation;1
1;152;159;104;2;9;7;-17;Fischer & Whitney (2014);Experiment 1b;Orientation;1
1;179;176;1;3;9;-3;-27;Fischer & Whitney (2014);Experiment 1b;Orientation;1
1;0;5;2;3;9;5;-1;Fischer & Whitney (2014);Experiment 1b;Orientation;1
1;147;147;3;3;9;0;33;Fischer & Whitney (2014);Experiment 1b;Orientation;1
1;21;20;4;3;9;-1;-54;Fischer & Whitney (2014);Experiment 1b;Orientation;1
1;177;172;5;3;9;-5;24;Fischer & Whitney (2014);Experiment 1b;Orientation;1
1;82;76;6;3;9;-6;-85;Fischer & Whitney (2014);Experiment 1b;Orientation;1
1;164;167;7;3;9;3;-82;Fischer & Whitney (2014);Experiment 1b;Orientation;1
1;85;78;8;3;9;-7;79;Fischer & Whitney (2014);Experiment 1b;Orientation;1
1;96;99;9;3;9;3;-11;Fischer & Whitney (2014);Experiment 1b;Orientation;1
1;141;141;10;3;9;0;-45;Fischer & Whitney (2014);Experiment 1b;Orientation;1
1;145;147;11;3;9;2;-4;Fischer & Whitney (2014);Experiment 1b;Orientation;1
1;75;73;12;3;9;-2;70;Fischer & Whitney (2014);Experiment 1b;Orientation;1
1;2;13;13;3;9;11;73;Fischer & Whitney (2014);Experiment 1b;Orientation;1
1;140;142;14;3;9;2;42;Fischer & Whitney (2014);Experiment 1b;Orientation;1
1;117;123;15;3;9;6;23;Fischer & Whitney (2014);Experiment 1b;Orientation;1
1;164;157;16;3;9;-7;-47;Fischer & Whitney (2014);Experiment 1b;Orientation;1
1;81;76;17;3;9;-5;83;Fischer & Whitney (2014);Experiment 1b;Orientation;1
1;147;160;18;3;9;13;-66;Fischer & Whitney (2014);Experiment 1b;Orientation;1
1;103;105;19;3;9;2;44;Fischer & Whitney (2014);Experiment 1b;Orientation;1
1;49;47;20;3;9;-2;54;Fischer & Whitney (2014);Experiment 1b;Orientation;1
1;39;43;21;3;9;4;10;Fischer & Whitney (2014);Experiment 1b;Orientation;1
1;52;48;22;3;9;-4;-13;Fischer & Whitney (2014);Experiment 1b;Orientation;1
1;16;23;23;3;9;7;36;Fischer & Whitney (2014);Experiment 1b;Orientation;1
1;140;142;24;3;9;2;56;Fischer & Whitney (2014);Experiment 1b;Orientation;1
1;81;78;25;3;9;-3;59;Fischer & Whitney (2014);Experiment 1b;Orientation;1
1;12;16;26;3;9;4;69;Fischer & Whitney (2014);Experiment 1b;Orientation;1
1;166;169;27;3;9;3;26;Fischer & Whitney (2014);Experiment 1b;Orientation;1
1;65;72;28;3;9;7;-79;Fischer & Whitney (2014);Experiment 1b;Orientation;1
1;178;3;29;3;9;5;67;Fischer & Whitney (2014);Experiment 1b;Orientation;1
1;22;24;30;3;9;2;-24;Fischer & Whitney (2014);Experiment 1b;Orientation;1
1;66;70;31;3;9;4;-44;Fischer & Whitney (2014);Experiment 1b;Orientation;1
1;20;35;32;3;9;15;46;Fischer & Whitney (2014);Experiment 1b;Orientation;1
1;7;17;33;3;9;10;13;Fischer & Whitney (2014);Experiment 1b;Orientation;1
1;110;116;34;3;9;6;77;Fischer & Whitney (2014);Experiment 1b;Orientation;1
1;49;58;35;3;9;9;61;Fischer & Whitney (2014);Experiment 1b;Orientation;1
1;93;93;36;3;9;0;-44;Fischer & Whitney (2014);Experiment 1b;Orientation;1
1;63;71;37;3;9;8;30;Fischer & Whitney (2014);Experiment 1b;Orientation;1
1;175;176;38;3;9;1;68;Fischer & Whitney (2014);Experiment 1b;Orientation;1
1;53;65;39;3;9;12;-58;Fischer & Whitney (2014);Experiment 1b;Orientation;1
1;43;51;40;3;9;8;10;Fischer & Whitney (2014);Experiment 1b;Orientation;1
1;43;49;41;3;9;6;0;Fischer & Whitney (2014);Experiment 1b;Orientation;1
1;53;50;42;3;9;-3;-10;Fischer & Whitney (2014);Experiment 1b;Orientation;1
1;151;146;43;3;9;-5;82;Fischer & Whitney (2014);Experiment 1b;Orientation;1
1;138;143;44;3;9;5;13;Fischer & Whitney (2014);Experiment 1b;Orientation;1
1;92;94;45;3;9;2;46;Fischer & Whitney (2014);Experiment 1b;Orientation;1
1;18;23;46;3;9;5;74;Fischer & Whitney (2014);Experiment 1b;Orientation;1
1;71;74;47;3;9;3;-53;Fischer & Whitney (2014);Experiment 1b;Orientation;1
1;149;141;48;3;9;-8;-78;Fischer & Whitney (2014);Experiment 1b;Orientation;1
1;122;120;49;3;9;-2;27;Fischer & Whitney (2014);Experiment 1b;Orientation;1
1;90;98;50;3;9;8;32;Fischer & Whitney (2014);Experiment 1b;Orientation;1
1;103;101;51;3;9;-2;-13;Fischer & Whitney (2014);Experiment 1b;Orientation;1
1;73;80;52;3;9;7;30;Fischer & Whitney (2014);Experiment 1b;Orientation;1
1;62;74;53;3;9;12;11;Fischer & Whitney (2014);Experiment 1b;Orientation;1
1;126;126;54;3;9;0;-64;Fischer & Whitney (2014);Experiment 1b;Orientation;1
1;92;106;55;3;9;14;34;Fischer & Whitney (2014);Experiment 1b;Orientation;1
1;127;119;56;3;9;-8;-35;Fischer & Whitney (2014);Experiment 1b;Orientation;1
1;148;149;57;3;9;1;-21;Fischer & Whitney (2014);Experiment 1b;Orientation;1
1;179;171;58;3;9;-8;-31;Fischer & Whitney (2014);Experiment 1b;Orientation;1
1;48;51;59;3;9;3;-49;Fischer & Whitney (2014);Experiment 1b;Orientation;1
1;174;166;60;3;9;-8;54;Fischer & Whitney (2014);Experiment 1b;Orientation;1
1;111;115;61;3;9;4;63;Fischer & Whitney (2014);Experiment 1b;Orientation;1
1;32;38;62;3;9;6;79;Fischer & Whitney (2014);Experiment 1b;Orientation;1
1;88;88;63;3;9;0;-56;Fischer & Whitney (2014);Experiment 1b;Orientation;1
1;167;159;64;3;9;-8;-79;Fischer & Whitney (2014);Experiment 1b;Orientation;1
1;80;82;65;3;9;2;87;Fischer & Whitney (2014);Experiment 1b;Orientation;1
1;42;63;66;3;9;21;38;Fischer & Whitney (2014);Experiment 1b;Orientation;1
1;48;59;67;3;9;11;-6;Fischer & Whitney (2014);Experiment 1b;Orientation;1
1;144;145;68;3;9;1;84;Fischer & Whitney (2014);Experiment 1b;Orientation;1
1;47;60;69;3;9;13;-83;Fischer & Whitney (2014);Experiment 1b;Orientation;1
1;151;152;70;3;9;1;76;Fischer & Whitney (2014);Experiment 1b;Orientation;1
1;77;78;71;3;9;1;74;Fischer & Whitney (2014);Experiment 1b;Orientation;1
1;147;156;72;3;9;9;-70;Fischer & Whitney (2014);Experiment 1b;Orientation;1
1;27;22;73;3;9;-5;-60;Fischer & Whitney (2014);Experiment 1b;Orientation;1
1;39;37;74;3;9;-2;-12;Fischer & Whitney (2014);Experiment 1b;Orientation;1
1;83;76;75;3;9;-7;-44;Fischer & Whitney (2014);Experiment 1b;Orientation;1
1;94;95;76;3;9;1;-11;Fischer & Whitney (2014);Experiment 1b;Orientation;1
1;156;161;77;3;9;5;-62;Fischer & Whitney (2014);Experiment 1b;Orientation;1
1;10;10;78;3;9;0;-34;Fischer & Whitney (2014);Experiment 1b;Orientation;1
1;46;45;79;3;9;-1;-36;Fischer & Whitney (2014);Experiment 1b;Orientation;1
1;47;52;80;3;9;5;-1;Fischer & Whitney (2014);Experiment 1b;Orientation;1
1;39;54;81;3;9;15;8;Fischer & Whitney (2014);Experiment 1b;Orientation;1
1;76;76;82;3;9;0;-37;Fischer & Whitney (2014);Experiment 1b;Orientation;1
1;165;162;83;3;9;-3;-89;Fischer & Whitney (2014);Experiment 1b;Orientation;1
1;100;111;84;3;9;11;65;Fischer & Whitney (2014);Experiment 1b;Orientation;1
1;68;80;85;3;9;12;32;Fischer & Whitney (2014);Experiment 1b;Orientation;1
1;51;68;86;3;9;17;17;Fischer & Whitney (2014);Experiment 1b;Orientation;1
1;85;79;87;3;9;-6;-34;Fischer & Whitney (2014);Experiment 1b;Orientation;1
1;59;73;88;3;9;14;26;Fischer & Whitney (2014);Experiment 1b;Orientation;1
1;76;77;89;3;9;1;-17;Fischer & Whitney (2014);Experiment 1b;Orientation;1
1;56;68;90;3;9;12;20;Fischer & Whitney (2014);Experiment 1b;Orientation;1
1;102;108;91;3;9;6;-46;Fischer & Whitney (2014);Experiment 1b;Orientation;1
1;106;108;92;3;9;2;-4;Fischer & Whitney (2014);Experiment 1b;Orientation;1
1;116;111;93;3;9;-5;-10;Fischer & Whitney (2014);Experiment 1b;Orientation;1
1;163;164;94;3;9;1;-47;Fischer & Whitney (2014);Experiment 1b;Orientation;1
1;154;157;95;3;9;3;9;Fischer & Whitney (2014);Experiment 1b;Orientation;1
1;164;165;96;3;9;1;-10;Fischer & Whitney (2014);Experiment 1b;Orientation;1
1;48;71;97;3;9;23;-64;Fischer & Whitney (2014);Experiment 1b;Orientation;1
1;121;118;98;3;9;-3;-73;Fischer & Whitney (2014);Experiment 1b;Orientation;1
1;111;115;99;3;9;4;10;Fischer & Whitney (2014);Experiment 1b;Orientation;1
1;173;169;100;3;9;-4;-62;Fischer & Whitney (2014);Experiment 1b;Orientation;1
1;23;19;101;3;9;-4;-30;Fischer & Whitney (2014);Experiment 1b;Orientation;1
1;170;175;102;3;9;5;33;Fischer & Whitney (2014);Experiment 1b;Orientation;1
1;0;175;103;3;9;-5;-10;Fischer & Whitney (2014);Experiment 1b;Orientation;1
1;20;17;104;3;9;-3;-20;Fischer & Whitney (2014);Experiment 1b;Orientation;1
1;114;120;1;4;9;6;86;Fischer & Whitney (2014);Experiment 1b;Orientation;1
1;19;29;2;4;9;10;-85;Fischer & Whitney (2014);Experiment 1b;Orientation;1
1;1;9;3;4;9;8;18;Fischer & Whitney (2014);Experiment 1b;Orientation;1
1;82;74;4;4;9;-8;-81;Fischer & Whitney (2014);Experiment 1b;Orientation;1
1;151;150;5;4;9;-1;-69;Fischer & Whitney (2014);Experiment 1b;Orientation;1
1;107;113;6;4;9;6;44;Fischer & Whitney (2014);Experiment 1b;Orientation;1
1;119;113;7;4;9;-6;-12;Fischer & Whitney (2014);Experiment 1b;Orientation;1
1;51;63;8;4;9;12;68;Fischer & Whitney (2014);Experiment 1b;Orientation;1
1;35;43;9;4;9;8;16;Fischer & Whitney (2014);Experiment 1b;Orientation;1
1;151;152;10;4;9;1;64;Fischer & Whitney (2014);Experiment 1b;Orientation;1
1;76;75;11;4;9;-1;75;Fischer & Whitney (2014);Experiment 1b;Orientation;1
1;39;56;12;4;9;17;37;Fischer & Whitney (2014);Experiment 1b;Orientation;1
1;171;172;13;4;9;1;48;Fischer & Whitney (2014);Experiment 1b;Orientation;1
1;123;119;14;4;9;-4;48;Fischer & Whitney (2014);Experiment 1b;Orientation;1
1;22;27;15;4;9;5;-79;Fischer & Whitney (2014);Experiment 1b;Orientation;1
1;148;145;16;4;9;-3;54;Fischer & Whitney (2014);Experiment 1b;Orientation;1
1;173;168;17;4;9;-5;-25;Fischer & Whitney (2014);Experiment 1b;Orientation;1
1;105;104;18;4;9;-1;68;Fischer & Whitney (2014);Experiment 1b;Orientation;1
1;141;140;19;4;9;-1;-36;Fischer & Whitney (2014);Experiment 1b;Orientation;1
1;42;58;20;4;9;16;-81;Fischer & Whitney (2014);Experiment 1b;Orientation;1
1;20;34;21;4;9;14;22;Fischer & Whitney (2014);Experiment 1b;Orientation;1
1;156;160;22;4;9;4;44;Fischer & Whitney (2014);Experiment 1b;Orientation;1
1;42;52;23;4;9;10;-66;Fischer & Whitney (2014);Experiment 1b;Orientation;1
1;66;60;24;4;9;-6;-24;Fischer & Whitney (2014);Experiment 1b;Orientation;1
1;79;71;25;4;9;-8;-13;Fischer & Whitney (2014);Experiment 1b;Orientation;1
1;98;94;26;4;9;-4;-19;Fischer & Whitney (2014);Experiment 1b;Orientation;1
1;110;103;27;4;9;-7;-12;Fischer & Whitney (2014);Experiment 1b;Orientation;1
1;150;145;28;4;9;-5;-40;Fischer & Whitney (2014);Experiment 1b;Orientation;1
1;151;150;29;4;9;-1;-1;Fischer & Whitney (2014);Experiment 1b;Orientation;1
1;139;148;30;4;9;9;12;Fischer & Whitney (2014);Experiment 1b;Orientation;1
1;65;73;31;4;9;8;74;Fischer & Whitney (2014);Experiment 1b;Orientation;1
1;110;111;32;4;9;1;-45;Fischer & Whitney (2014);Experiment 1b;Orientation;1
1;125;115;33;4;9;-10;-15;Fischer & Whitney (2014);Experiment 1b;Orientation;1
1;152;155;34;4;9;3;-27;Fischer & Whitney (2014);Experiment 1b;Orientation;1
1;23;24;35;4;9;1;-51;Fischer & Whitney (2014);Experiment 1b;Orientation;1
1;15;26;36;4;9;11;8;Fischer & Whitney (2014);Experiment 1b;Orientation;1
1;93;94;37;4;9;1;-78;Fischer & Whitney (2014);Experiment 1b;Orientation;1
1;122;111;38;4;9;-11;-29;Fischer & Whitney (2014);Experiment 1b;Orientation;1
1;137;130;39;4;9;-7;-15;Fischer & Whitney (2014);Experiment 1b;Orientation;1
1;154;155;40;4;9;1;-17;Fischer & Whitney (2014);Experiment 1b;Orientation;1
1;163;161;41;4;9;-2;-9;Fischer & Whitney (2014);Experiment 1b;Orientation;1
1;119;113;42;4;9;-6;44;Fischer & Whitney (2014);Experiment 1b;Orientation;1
1;40;46;43;4;9;6;79;Fischer & Whitney (2014);Experiment 1b;Orientation;1
1;141;130;44;4;9;-11;79;Fischer & Whitney (2014);Experiment 1b;Orientation;1
1;129;133;45;4;9;4;12;Fischer & Whitney (2014);Experiment 1b;Orientation;1
1;166;172;46;4;9;6;-37;Fischer & Whitney (2014);Experiment 1b;Orientation;1
1;114;114;47;4;9;0;52;Fischer & Whitney (2014);Experiment 1b;Orientation;1
1;30;25;48;4;9;-5;84;Fischer & Whitney (2014);Experiment 1b;Orientation;1
1;127;121;49;4;9;-6;83;Fischer & Whitney (2014);Experiment 1b;Orientation;1
1;15;21;50;4;9;6;-68;Fischer & Whitney (2014);Experiment 1b;Orientation;1
1;94;87;51;4;9;-7;-79;Fischer & Whitney (2014);Experiment 1b;Orientation;1
1;143;157;52;4;9;14;-49;Fischer & Whitney (2014);Experiment 1b;Orientation;1
1;64;71;53;4;9;7;79;Fischer & Whitney (2014);Experiment 1b;Orientation;1
1;81;75;54;4;9;-6;-17;Fischer & Whitney (2014);Experiment 1b;Orientation;1
1;72;71;55;4;9;-1;9;Fischer & Whitney (2014);Experiment 1b;Orientation;1
1;119;115;56;4;9;-4;-47;Fischer & Whitney (2014);Experiment 1b;Orientation;1
1;96;102;57;4;9;6;23;Fischer & Whitney (2014);Experiment 1b;Orientation;1
1;95;101;58;4;9;6;1;Fischer & Whitney (2014);Experiment 1b;Orientation;1
1;22;28;59;4;9;6;73;Fischer & Whitney (2014);Experiment 1b;Orientation;1
1;169;167;60;4;9;-2;33;Fischer & Whitney (2014);Experiment 1b;Orientation;1
1;172;172;61;4;9;0;-3;Fischer & Whitney (2014);Experiment 1b;Orientation;1
1;113;107;62;4;9;-6;59;Fischer & Whitney (2014);Experiment 1b;Orientation;1
1;109;106;63;4;9;-3;4;Fischer & Whitney (2014);Experiment 1b;Orientation;1
1;168;167;64;4;9;-1;-59;Fischer & Whitney (2014);Experiment 1b;Orientation;1
1;50;71;65;4;9;21;-62;Fischer & Whitney (2014);Experiment 1b;Orientation;1
1;11;24;66;4;9;13;39;Fischer & Whitney (2014);Experiment 1b;Orientation;1
1;174;176;67;4;9;2;17;Fischer & Whitney (2014);Experiment 1b;Orientation;1
1;38;63;68;4;9;25;-44;Fischer & Whitney (2014);Experiment 1b;Orientation;1
1;51;64;69;4;9;13;-13;Fischer & Whitney (2014);Experiment 1b;Orientation;1
1;125;114;70;4;9;-11;-74;Fischer & Whitney (2014);Experiment 1b;Orientation;1
1;163;162;71;4;9;-1;-38;Fischer & Whitney (2014);Experiment 1b;Orientation;1
1;162;166;72;4;9;4;1;Fischer & Whitney (2014);Experiment 1b;Orientation;1
1;150;150;73;4;9;0;12;Fischer & Whitney (2014);Experiment 1b;Orientation;1
1;162;159;74;4;9;-3;-12;Fischer & Whitney (2014);Experiment 1b;Orientation;1
1;136;145;75;4;9;9;26;Fischer & Whitney (2014);Experiment 1b;Orientation;1
1;129;125;76;4;9;-4;7;Fischer & Whitney (2014);Experiment 1b;Orientation;1
1;23;18;77;4;9;-5;-74;Fischer & Whitney (2014);Experiment 1b;Orientation;1
1;98;101;78;4;9;3;-75;Fischer & Whitney (2014);Experiment 1b;Orientation;1
1;88;94;79;4;9;6;10;Fischer & Whitney (2014);Experiment 1b;Orientation;1
1;136;125;80;4;9;-11;-48;Fischer & Whitney (2014);Experiment 1b;Orientation;1
1;153;144;81;4;9;-9;-17;Fischer & Whitney (2014);Experiment 1b;Orientation;1
1;172;151;82;4;9;-21;-19;Fischer & Whitney (2014);Experiment 1b;Orientation;1
1;101;100;83;4;9;-1;71;Fischer & Whitney (2014);Experiment 1b;Orientation;1
1;102;96;84;4;9;-6;-1;Fischer & Whitney (2014);Experiment 1b;Orientation;1
1;170;168;85;4;9;-2;-68;Fischer & Whitney (2014);Experiment 1b;Orientation;1
1;14;16;86;4;9;2;-24;Fischer & Whitney (2014);Experiment 1b;Orientation;1
1;108;104;87;4;9;-4;86;Fischer & Whitney (2014);Experiment 1b;Orientation;1
1;92;97;88;4;9;5;16;Fischer & Whitney (2014);Experiment 1b;Orientation;1
1;39;52;89;4;9;13;53;Fischer & Whitney (2014);Experiment 1b;Orientation;1
1;34;53;90;4;9;19;5;Fischer & Whitney (2014);Experiment 1b;Orientation;1
1;18;26;91;4;9;8;16;Fischer & Whitney (2014);Experiment 1b;Orientation;1
1;104;105;92;4;9;1;-86;Fischer & Whitney (2014);Experiment 1b;Orientation;1
1;154;161;93;4;9;7;-50;Fischer & Whitney (2014);Experiment 1b;Orientation;1
1;100;102;94;4;9;2;54;Fischer & Whitney (2014);Experiment 1b;Orientation;1
1;126;114;95;4;9;-12;-26;Fischer & Whitney (2014);Experiment 1b;Orientation;1
1;176;169;96;4;9;-7;-50;Fischer & Whitney (2014);Experiment 1b;Orientation;1
1;136;133;97;4;9;-3;40;Fischer & Whitney (2014);Experiment 1b;Orientation;1
1;165;159;98;4;9;-6;-29;Fischer & Whitney (2014);Experiment 1b;Orientation;1
1;49;61;99;4;9;12;-64;Fischer & Whitney (2014);Experiment 1b;Orientation;1
1;93;87;100;4;9;-6;-44;Fischer & Whitney (2014);Experiment 1b;Orientation;1
1;7;13;101;4;9;6;86;Fischer & Whitney (2014);Experiment 1b;Orientation;1
1;149;162;102;4;9;13;38;Fischer & Whitney (2014);Experiment 1b;Orientation;1
1;0;2;103;4;9;2;-31;Fischer & Whitney (2014);Experiment 1b;Orientation;1
1;62;70;104;4;9;8;-62;Fischer & Whitney (2014);Experiment 1b;Orientation;1
1;130;129;1;5;9;-1;-68;Fischer & Whitney (2014);Experiment 1b;Orientation;1
1;99;97;2;5;9;-2;31;Fischer & Whitney (2014);Experiment 1b;Orientation;1
1;33;27;3;5;9;-6;66;Fischer & Whitney (2014);Experiment 1b;Orientation;1
1;33;27;4;5;9;-6;0;Fischer & Whitney (2014);Experiment 1b;Orientation;1
1;79;77;5;5;9;-2;-46;Fischer & Whitney (2014);Experiment 1b;Orientation;1
1;160;156;6;5;9;-4;-81;Fischer & Whitney (2014);Experiment 1b;Orientation;1
1;4;8;7;5;9;4;-24;Fischer & Whitney (2014);Experiment 1b;Orientation;1
1;60;67;8;5;9;7;-56;Fischer & Whitney (2014);Experiment 1b;Orientation;1
1;97;96;9;5;9;-1;-37;Fischer & Whitney (2014);Experiment 1b;Orientation;1
1;100;101;10;5;9;1;-3;Fischer & Whitney (2014);Experiment 1b;Orientation;1
1;6;9;11;5;9;3;-86;Fischer & Whitney (2014);Experiment 1b;Orientation;1
1;31;22;12;5;9;-9;-25;Fischer & Whitney (2014);Experiment 1b;Orientation;1
1;92;101;13;5;9;9;-61;Fischer & Whitney (2014);Experiment 1b;Orientation;1
1;160;161;14;5;9;1;-68;Fischer & Whitney (2014);Experiment 1b;Orientation;1
1;103;105;15;5;9;2;57;Fischer & Whitney (2014);Experiment 1b;Orientation;1
1;166;154;16;5;9;-12;-63;Fischer & Whitney (2014);Experiment 1b;Orientation;1
1;34;34;17;5;9;0;-48;Fischer & Whitney (2014);Experiment 1b;Orientation;1
1;17;36;18;5;9;19;17;Fischer & Whitney (2014);Experiment 1b;Orientation;1
1;78;71;19;5;9;-7;-61;Fischer & Whitney (2014);Experiment 1b;Orientation;1
1;63;68;20;5;9;5;15;Fischer & Whitney (2014);Experiment 1b;Orientation;1
1;5;179;21;5;9;-6;58;Fischer & Whitney (2014);Experiment 1b;Orientation;1
1;107;109;22;5;9;2;78;Fischer & Whitney (2014);Experiment 1b;Orientation;1
1;28;30;23;5;9;2;79;Fischer & Whitney (2014);Experiment 1b;Orientation;1
1;165;163;24;5;9;-2;43;Fischer & Whitney (2014);Experiment 1b;Orientation;1
1;37;23;25;5;9;-14;-52;Fischer & Whitney (2014);Experiment 1b;Orientation;1
1;74;72;26;5;9;-2;-37;Fischer & Whitney (2014);Experiment 1b;Orientation;1
1;48;51;27;5;9;3;26;Fischer & Whitney (2014);Experiment 1b;Orientation;1
1;138;120;28;5;9;-18;-90;Fischer & Whitney (2014);Experiment 1b;Orientation;1
1;99;111;29;5;9;12;39;Fischer & Whitney (2014);Experiment 1b;Orientation;1
1;43;35;30;5;9;-8;56;Fischer & Whitney (2014);Experiment 1b;Orientation;1
1;150;163;31;5;9;13;73;Fischer & Whitney (2014);Experiment 1b;Orientation;1
1;24;17;32;5;9;-7;-54;Fischer & Whitney (2014);Experiment 1b;Orientation;1
1;47;23;33;5;9;-24;-23;Fischer & Whitney (2014);Experiment 1b;Orientation;1
1;89;77;34;5;9;-12;-42;Fischer & Whitney (2014);Experiment 1b;Orientation;1
1;156;158;35;5;9;2;-67;Fischer & Whitney (2014);Experiment 1b;Orientation;1
1;135;150;36;5;9;15;21;Fischer & Whitney (2014);Experiment 1b;Orientation;1
1;87;82;37;5;9;-5;48;Fischer & Whitney (2014);Experiment 1b;Orientation;1
1;41;46;38;5;9;5;46;Fischer & Whitney (2014);Experiment 1b;Orientation;1
1;46;46;39;5;9;0;-5;Fischer & Whitney (2014);Experiment 1b;Orientation;1
1;28;33;40;5;9;5;18;Fischer & Whitney (2014);Experiment 1b;Orientation;1
1;104;114;41;5;9;10;-76;Fischer & Whitney (2014);Experiment 1b;Orientation;1
1;24;23;42;5;9;-1;80;Fischer & Whitney (2014);Experiment 1b;Orientation;1
1;70;81;43;5;9;11;-46;Fischer & Whitney (2014);Experiment 1b;Orientation;1
1;140;160;44;5;9;20;-70;Fischer & Whitney (2014);Experiment 1b;Orientation;1
1;169;167;45;5;9;-2;-29;Fischer & Whitney (2014);Experiment 1b;Orientation;1
1;48;27;46;5;9;-21;-59;Fischer & Whitney (2014);Experiment 1b;Orientation;1
1;176;167;47;5;9;-9;52;Fischer & Whitney (2014);Experiment 1b;Orientation;1
1;133;142;48;5;9;9;43;Fischer & Whitney (2014);Experiment 1b;Orientation;1
1;140;140;49;5;9;0;-7;Fischer & Whitney (2014);Experiment 1b;Orientation;1
1;155;155;50;5;9;0;-15;Fischer & Whitney (2014);Experiment 1b;Orientation;1
1;120;120;51;5;9;0;35;Fischer & Whitney (2014);Experiment 1b;Orientation;1
1;178;178;52;5;9;0;-58;Fischer & Whitney (2014);Experiment 1b;Orientation;1
1;72;76;53;5;9;4;-74;Fischer & Whitney (2014);Experiment 1b;Orientation;1
1;74;75;54;5;9;1;-2;Fischer & Whitney (2014);Experiment 1b;Orientation;1
1;101;107;55;5;9;6;-27;Fischer & Whitney (2014);Experiment 1b;Orientation;1
1;73;72;56;5;9;-1;28;Fischer & Whitney (2014);Experiment 1b;Orientation;1
1;1;9;57;5;9;8;72;Fischer & Whitney (2014);Experiment 1b;Orientation;1
1;3;1;58;5;9;-2;-2;Fischer & Whitney (2014);Experiment 1b;Orientation;1
1;148;155;59;5;9;7;35;Fischer & Whitney (2014);Experiment 1b;Orientation;1
1;88;105;60;5;9;17;60;Fischer & Whitney (2014);Experiment 1b;Orientation;1
1;179;173;61;5;9;-6;89;Fischer & Whitney (2014);Experiment 1b;Orientation;1
1;138;159;62;5;9;21;41;Fischer & Whitney (2014);Experiment 1b;Orientation;1
1;107;110;63;5;9;3;31;Fischer & Whitney (2014);Experiment 1b;Orientation;1
1;81;70;64;5;9;-11;26;Fischer & Whitney (2014);Experiment 1b;Orientation;1
1;104;110;65;5;9;6;-23;Fischer & Whitney (2014);Experiment 1b;Orientation;1
1;1;175;66;5;9;-6;-77;Fischer & Whitney (2014);Experiment 1b;Orientation;1
1;160;166;67;5;9;6;21;Fischer & Whitney (2014);Experiment 1b;Orientation;1
1;140;151;68;5;9;11;20;Fischer & Whitney (2014);Experiment 1b;Orientation;1
1;75;69;69;5;9;-6;65;Fischer & Whitney (2014);Experiment 1b;Orientation;1
1;6;11;70;5;9;5;69;Fischer & Whitney (2014);Experiment 1b;Orientation;1
1;174;174;71;5;9;0;12;Fischer & Whitney (2014);Experiment 1b;Orientation;1
1;80;70;72;5;9;-10;-86;Fischer & Whitney (2014);Experiment 1b;Orientation;1
1;100;105;73;5;9;5;-20;Fischer & Whitney (2014);Experiment 1b;Orientation;1
1;48;35;74;5;9;-13;52;Fischer & Whitney (2014);Experiment 1b;Orientation;1
1;49;40;75;5;9;-9;-1;Fischer & Whitney (2014);Experiment 1b;Orientation;1
1;60;58;76;5;9;-2;-11;Fischer & Whitney (2014);Experiment 1b;Orientation;1
1;113;111;77;5;9;-2;-53;Fischer & Whitney (2014);Experiment 1b;Orientation;1
1;93;107;78;5;9;14;20;Fischer & Whitney (2014);Experiment 1b;Orientation;1
1;34;36;79;5;9;2;59;Fischer & Whitney (2014);Experiment 1b;Orientation;1
1;67;51;80;5;9;-16;-33;Fischer & Whitney (2014);Experiment 1b;Orientation;1
1;24;24;81;5;9;0;43;Fischer & Whitney (2014);Experiment 1b;Orientation;1
1;43;31;82;5;9;-12;-19;Fischer & Whitney (2014);Experiment 1b;Orientation;1
1;41;29;83;5;9;-12;2;Fischer & Whitney (2014);Experiment 1b;Orientation;1
1;90;97;84;5;9;7;-49;Fischer & Whitney (2014);Experiment 1b;Orientation;1
1;70;68;85;5;9;-2;20;Fischer & Whitney (2014);Experiment 1b;Orientation;1
1;132;135;86;5;9;3;-62;Fischer & Whitney (2014);Experiment 1b;Orientation;1
1;146;140;87;5;9;-6;-14;Fischer & Whitney (2014);Experiment 1b;Orientation;1
1;154;154;88;5;9;0;-8;Fischer & Whitney (2014);Experiment 1b;Orientation;1
1;3;175;89;5;9;-8;-29;Fischer & Whitney (2014);Experiment 1b;Orientation;1
1;17;9;90;5;9;-8;-14;Fischer & Whitney (2014);Experiment 1b;Orientation;1
1;63;65;91;5;9;2;-46;Fischer & Whitney (2014);Experiment 1b;Orientation;1
1;165;166;92;5;9;1;78;Fischer & Whitney (2014);Experiment 1b;Orientation;1
1;62;66;93;5;9;4;-77;Fischer & Whitney (2014);Experiment 1b;Orientation;1
1;139;138;94;5;9;-1;-77;Fischer & Whitney (2014);Experiment 1b;Orientation;1
1;165;156;95;5;9;-9;-26;Fischer & Whitney (2014);Experiment 1b;Orientation;1
1;7;10;96;5;9;3;-22;Fischer & Whitney (2014);Experiment 1b;Orientation;1
1;175;170;97;5;9;-5;12;Fischer & Whitney (2014);Experiment 1b;Orientation;1
1;142;159;98;5;9;17;33;Fischer & Whitney (2014);Experiment 1b;Orientation;1
1;123;104;99;5;9;-19;19;Fischer & Whitney (2014);Experiment 1b;Orientation;1
1;118;107;100;5;9;-11;5;Fischer & Whitney (2014);Experiment 1b;Orientation;1
1;13;16;101;5;9;3;-75;Fischer & Whitney (2014);Experiment 1b;Orientation;1
1;55;39;102;5;9;-16;-42;Fischer & Whitney (2014);Experiment 1b;Orientation;1
1;96;111;103;5;9;15;-41;Fischer & Whitney (2014);Experiment 1b;Orientation;1
1;7;10;104;5;9;3;89;Fischer & Whitney (2014);Experiment 1b;Orientation;1
1;105;109;1;6;9;4;82;Fischer & Whitney (2014);Experiment 1b;Orientation;1
1;40;33;2;6;9;-7;65;Fischer & Whitney (2014);Experiment 1b;Orientation;1
1;49;46;3;6;9;-3;-9;Fischer & Whitney (2014);Experiment 1b;Orientation;1
1;140;128;4;6;9;-12;89;Fischer & Whitney (2014);Experiment 1b;Orientation;1
1;3;24;5;6;9;21;-43;Fischer & Whitney (2014);Experiment 1b;Orientation;1
1;75;71;6;6;9;-4;-72;Fischer & Whitney (2014);Experiment 1b;Orientation;1
1;130;125;7;6;9;-5;-55;Fischer & Whitney (2014);Experiment 1b;Orientation;1
1;3;6;8;6;9;3;-53;Fischer & Whitney (2014);Experiment 1b;Orientation;1
1;21;8;9;6;9;-13;-18;Fischer & Whitney (2014);Experiment 1b;Orientation;1
1;3;10;10;6;9;7;18;Fischer & Whitney (2014);Experiment 1b;Orientation;1
1;27;21;11;6;9;-6;-24;Fischer & Whitney (2014);Experiment 1b;Orientation;1
1;129;136;12;6;9;7;78;Fischer & Whitney (2014);Experiment 1b;Orientation;1
1;4;1;13;6;9;-3;-55;Fischer & Whitney (2014);Experiment 1b;Orientation;1
1;145;134;14;6;9;-11;39;Fischer & Whitney (2014);Experiment 1b;Orientation;1
1;50;37;15;6;9;-13;-85;Fischer & Whitney (2014);Experiment 1b;Orientation;1
1;169;156;16;6;9;-13;61;Fischer & Whitney (2014);Experiment 1b;Orientation;1
1;103;104;17;6;9;1;66;Fischer & Whitney (2014);Experiment 1b;Orientation;1
1;68;69;18;6;9;1;35;Fischer & Whitney (2014);Experiment 1b;Orientation;1
1;48;42;19;6;9;-6;20;Fischer & Whitney (2014);Experiment 1b;Orientation;1
1;51;54;20;6;9;3;-3;Fischer & Whitney (2014);Experiment 1b;Orientation;1
1;133;122;21;6;9;-11;-82;Fischer & Whitney (2014);Experiment 1b;Orientation;1
1;116;122;22;6;9;6;17;Fischer & Whitney (2014);Experiment 1b;Orientation;1
1;54;44;23;6;9;-10;62;Fischer & Whitney (2014);Experiment 1b;Orientation;1
1;68;66;24;6;9;-2;-14;Fischer & Whitney (2014);Experiment 1b;Orientation;1
1;37;43;25;6;9;6;31;Fischer & Whitney (2014);Experiment 1b;Orientation;1
1;126;129;26;6;9;3;-89;Fischer & Whitney (2014);Experiment 1b;Orientation;1
1;0;175;27;6;9;-5;-54;Fischer & Whitney (2014);Experiment 1b;Orientation;1
1;179;174;28;6;9;-5;1;Fischer & Whitney (2014);Experiment 1b;Orientation;1
1;95;102;29;6;9;7;84;Fischer & Whitney (2014);Experiment 1b;Orientation;1
1;128;111;30;6;9;-17;-33;Fischer & Whitney (2014);Experiment 1b;Orientation;1
1;157;130;31;6;9;-27;-29;Fischer & Whitney (2014);Experiment 1b;Orientation;1
1;177;171;32;6;9;-6;-20;Fischer & Whitney (2014);Experiment 1b;Orientation;1
1;158;160;33;6;9;2;19;Fischer & Whitney (2014);Experiment 1b;Orientation;1
1;9;18;34;6;9;9;-31;Fischer & Whitney (2014);Experiment 1b;Orientation;1
1;56;61;35;6;9;5;-47;Fischer & Whitney (2014);Experiment 1b;Orientation;1
1;112;112;36;6;9;0;-56;Fischer & Whitney (2014);Experiment 1b;Orientation;1
1;100;111;37;6;9;11;12;Fischer & Whitney (2014);Experiment 1b;Orientation;1
1;143;125;38;6;9;-18;-43;Fischer & Whitney (2014);Experiment 1b;Orientation;1
1;122;117;39;6;9;-5;21;Fischer & Whitney (2014);Experiment 1b;Orientation;1
1;15;24;40;6;9;9;-73;Fischer & Whitney (2014);Experiment 1b;Orientation;1
1;148;145;41;6;9;-3;47;Fischer & Whitney (2014);Experiment 1b;Orientation;1
1;37;37;42;6;9;0;-69;Fischer & Whitney (2014);Experiment 1b;Orientation;1
1;134;138;43;6;9;4;83;Fischer & Whitney (2014);Experiment 1b;Orientation;1
1;47;50;44;6;9;3;87;Fischer & Whitney (2014);Experiment 1b;Orientation;1
1;173;173;45;6;9;0;54;Fischer & Whitney (2014);Experiment 1b;Orientation;1
1;161;164;46;6;9;3;12;Fischer & Whitney (2014);Experiment 1b;Orientation;1
1;15;14;47;6;9;-1;-34;Fischer & Whitney (2014);Experiment 1b;Orientation;1
1;178;9;48;6;9;11;17;Fischer & Whitney (2014);Experiment 1b;Orientation;1
1;166;161;49;6;9;-5;12;Fischer & Whitney (2014);Experiment 1b;Orientation;1
1;19;19;50;6;9;0;-33;Fischer & Whitney (2014);Experiment 1b;Orientation;1
1;105;111;51;6;9;6;-86;Fischer & Whitney (2014);Experiment 1b;Orientation;1
1;145;117;52;6;9;-28;-40;Fischer & Whitney (2014);Experiment 1b;Orientation;1
1;151;141;53;6;9;-10;-6;Fischer & Whitney (2014);Experiment 1b;Orientation;1
1;137;138;54;6;9;1;14;Fischer & Whitney (2014);Experiment 1b;Orientation;1
1;7;12;55;6;9;5;-50;Fischer & Whitney (2014);Experiment 1b;Orientation;1
1;39;30;56;6;9;-9;-32;Fischer & Whitney (2014);Experiment 1b;Orientation;1
1;117;118;57;6;9;1;-78;Fischer & Whitney (2014);Experiment 1b;Orientation;1
1;110;117;58;6;9;7;7;Fischer & Whitney (2014);Experiment 1b;Orientation;1
1;54;57;59;6;9;3;56;Fischer & Whitney (2014);Experiment 1b;Orientation;1
1;175;174;60;6;9;-1;59;Fischer & Whitney (2014);Experiment 1b;Orientation;1
1;5;176;61;6;9;-9;-10;Fischer & Whitney (2014);Experiment 1b;Orientation;1
1;11;9;62;6;9;-2;-6;Fischer & Whitney (2014);Experiment 1b;Orientation;1
1;83;76;63;6;9;-7;-72;Fischer & Whitney (2014);Experiment 1b;Orientation;1
1;167;164;64;6;9;-3;-84;Fischer & Whitney (2014);Experiment 1b;Orientation;1
1;88;75;65;6;9;-13;79;Fischer & Whitney (2014);Experiment 1b;Orientation;1
1;4;12;66;6;9;8;84;Fischer & Whitney (2014);Experiment 1b;Orientation;1
1;107;108;67;6;9;1;77;Fischer & Whitney (2014);Experiment 1b;Orientation;1
1;126;114;68;6;9;-12;-19;Fischer & Whitney (2014);Experiment 1b;Orientation;1
1;1;8;69;6;9;7;-55;Fischer & Whitney (2014);Experiment 1b;Orientation;1
1;68;60;70;6;9;-8;-67;Fischer & Whitney (2014);Experiment 1b;Orientation;1
1;146;141;71;6;9;-5;-78;Fischer & Whitney (2014);Experiment 1b;Orientation;1
1;143;148;72;6;9;5;3;Fischer & Whitney (2014);Experiment 1b;Orientation;1
1;177;170;73;6;9;-7;-34;Fischer & Whitney (2014);Experiment 1b;Orientation;1
1;144;149;74;6;9;5;33;Fischer & Whitney (2014);Experiment 1b;Orientation;1
1;25;23;75;6;9;-2;-61;Fischer & Whitney (2014);Experiment 1b;Orientation;1
1;175;172;76;6;9;-3;30;Fischer & Whitney (2014);Experiment 1b;Orientation;1
1;55;63;77;6;9;8;-60;Fischer & Whitney (2014);Experiment 1b;Orientation;1
1;33;41;78;6;9;8;22;Fischer & Whitney (2014);Experiment 1b;Orientation;1
1;80;71;79;6;9;-9;-47;Fischer & Whitney (2014);Experiment 1b;Orientation;1
1;24;30;80;6;9;6;56;Fischer & Whitney (2014);Experiment 1b;Orientation;1
1;11;25;81;6;9;14;13;Fischer & Whitney (2014);Experiment 1b;Orientation;1
1;7;7;82;6;9;0;4;Fischer & Whitney (2014);Experiment 1b;Orientation;1
1;46;64;83;6;9;18;-39;Fischer & Whitney (2014);Experiment 1b;Orientation;1
1;144;144;84;6;9;0;82;Fischer & Whitney (2014);Experiment 1b;Orientation;1
1;87;80;85;6;9;-7;57;Fischer & Whitney (2014);Experiment 1b;Orientation;1
1;106;100;86;6;9;-6;-19;Fischer & Whitney (2014);Experiment 1b;Orientation;1
1;170;165;87;6;9;-5;-64;Fischer & Whitney (2014);Experiment 1b;Orientation;1
1;96;103;88;6;9;7;74;Fischer & Whitney (2014);Experiment 1b;Orientation;1
1;130;106;89;6;9;-24;-34;Fischer & Whitney (2014);Experiment 1b;Orientation;1
1;106;104;90;6;9;-2;24;Fischer & Whitney (2014);Experiment 1b;Orientation;1
1;33;27;91;6;9;-6;73;Fischer & Whitney (2014);Experiment 1b;Orientation;1
1;61;52;92;6;9;-9;-28;Fischer & Whitney (2014);Experiment 1b;Orientation;1
1;106;120;93;6;9;14;-45;Fischer & Whitney (2014);Experiment 1b;Orientation;1
1;44;55;94;6;9;11;62;Fischer & Whitney (2014);Experiment 1b;Orientation;1
1;70;56;95;6;9;-14;-26;Fischer & Whitney (2014);Experiment 1b;Orientation;1
1;115;111;96;6;9;-4;-45;Fischer & Whitney (2014);Experiment 1b;Orientation;1
1;26;25;97;6;9;-1;89;Fischer & Whitney (2014);Experiment 1b;Orientation;1
1;65;66;98;6;9;1;-39;Fischer & Whitney (2014);Experiment 1b;Orientation;1
1;82;69;99;6;9;-13;-17;Fischer & Whitney (2014);Experiment 1b;Orientation;1
1;13;18;100;6;9;5;69;Fischer & Whitney (2014);Experiment 1b;Orientation;1
1;73;72;101;6;9;-1;-60;Fischer & Whitney (2014);Experiment 1b;Orientation;1
1;175;5;102;6;9;10;78;Fischer & Whitney (2014);Experiment 1b;Orientation;1
1;45;60;103;6;9;15;-50;Fischer & Whitney (2014);Experiment 1b;Orientation;1
1;54;48;104;6;9;-6;-9;Fischer & Whitney (2014);Experiment 1b;Orientation;1
1;41;40;1;7;9;-1;13;Fischer & Whitney (2014);Experiment 1b;Orientation;1
1;52;53;2;7;9;1;-11;Fischer & Whitney (2014);Experiment 1b;Orientation;1
1;22;21;3;7;9;-1;30;Fischer & Whitney (2014);Experiment 1b;Orientation;1
1;149;151;4;7;9;2;53;Fischer & Whitney (2014);Experiment 1b;Orientation;1
1;142;142;5;7;9;0;7;Fischer & Whitney (2014);Experiment 1b;Orientation;1
1;40;40;6;7;9;0;-78;Fischer & Whitney (2014);Experiment 1b;Orientation;1
1;179;168;7;7;9;-11;41;Fischer & Whitney (2014);Experiment 1b;Orientation;1
1;158;150;8;7;9;-8;21;Fischer & Whitney (2014);Experiment 1b;Orientation;1
1;33;32;9;7;9;-1;-55;Fischer & Whitney (2014);Experiment 1b;Orientation;1
1;69;70;10;7;9;1;-36;Fischer & Whitney (2014);Experiment 1b;Orientation;1
1;47;52;11;7;9;5;22;Fischer & Whitney (2014);Experiment 1b;Orientation;1
1;162;162;12;7;9;0;65;Fischer & Whitney (2014);Experiment 1b;Orientation;1
1;111;116;13;7;9;5;51;Fischer & Whitney (2014);Experiment 1b;Orientation;1
1;126;119;14;7;9;-7;-15;Fischer & Whitney (2014);Experiment 1b;Orientation;1
1;101;108;15;7;9;7;25;Fischer & Whitney (2014);Experiment 1b;Orientation;1
1;124;115;16;7;9;-9;-23;Fischer & Whitney (2014);Experiment 1b;Orientation;1
1;87;82;17;7;9;-5;37;Fischer & Whitney (2014);Experiment 1b;Orientation;1
1;174;168;18;7;9;-6;-87;Fischer & Whitney (2014);Experiment 1b;Orientation;1
1;14;12;19;7;9;-2;-20;Fischer & Whitney (2014);Experiment 1b;Orientation;1
1;105;108;20;7;9;3;89;Fischer & Whitney (2014);Experiment 1b;Orientation;1
1;128;114;21;7;9;-14;-23;Fischer & Whitney (2014);Experiment 1b;Orientation;1
1;62;67;22;7;9;5;66;Fischer & Whitney (2014);Experiment 1b;Orientation;1
1;37;47;23;7;9;10;25;Fischer & Whitney (2014);Experiment 1b;Orientation;1
1;59;64;24;7;9;5;-22;Fischer & Whitney (2014);Experiment 1b;Orientation;1
1;95;100;25;7;9;5;-36;Fischer & Whitney (2014);Experiment 1b;Orientation;1
1;99;101;26;7;9;2;-4;Fischer & Whitney (2014);Experiment 1b;Orientation;1
1;22;20;27;7;9;-2;77;Fischer & Whitney (2014);Experiment 1b;Orientation;1
1;100;99;28;7;9;-1;-78;Fischer & Whitney (2014);Experiment 1b;Orientation;1
1;144;138;29;7;9;-6;-44;Fischer & Whitney (2014);Experiment 1b;Orientation;1
1;37;30;30;7;9;-7;-73;Fischer & Whitney (2014);Experiment 1b;Orientation;1
1;93;86;31;7;9;-7;-56;Fischer & Whitney (2014);Experiment 1b;Orientation;1
1;91;95;32;7;9;4;2;Fischer & Whitney (2014);Experiment 1b;Orientation;1
1;34;25;33;7;9;-9;57;Fischer & Whitney (2014);Experiment 1b;Orientation;1
1;5;13;34;7;9;8;29;Fischer & Whitney (2014);Experiment 1b;Orientation;1
1;143;152;35;7;9;9;42;Fischer & Whitney (2014);Experiment 1b;Orientation;1
1;66;67;36;7;9;1;77;Fischer & Whitney (2014);Experiment 1b;Orientation;1
1;30;41;37;7;9;11;36;Fischer & Whitney (2014);Experiment 1b;Orientation;1
1;16;32;38;7;9;16;14;Fischer & Whitney (2014);Experiment 1b;Orientation;1
1;102;99;39;7;9;-3;-86;Fischer & Whitney (2014);Experiment 1b;Orientation;1
1;49;66;40;7;9;17;53;Fischer & Whitney (2014);Experiment 1b;Orientation;1
1;30;23;41;7;9;-7;19;Fischer & Whitney (2014);Experiment 1b;Orientation;1
1;139;144;42;7;9;5;71;Fischer & Whitney (2014);Experiment 1b;Orientation;1
1;133;140;43;7;9;7;6;Fischer & Whitney (2014);Experiment 1b;Orientation;1
1;85;82;44;7;9;-3;48;Fischer & Whitney (2014);Experiment 1b;Orientation;1
1;17;18;45;7;9;1;68;Fischer & Whitney (2014);Experiment 1b;Orientation;1
1;154;161;46;7;9;7;43;Fischer & Whitney (2014);Experiment 1b;Orientation;1
1;4;13;47;7;9;9;-30;Fischer & Whitney (2014);Experiment 1b;Orientation;1
1;148;159;48;7;9;11;36;Fischer & Whitney (2014);Experiment 1b;Orientation;1
1;80;80;49;7;9;0;68;Fischer & Whitney (2014);Experiment 1b;Orientation;1
1;62;74;50;7;9;12;18;Fischer & Whitney (2014);Experiment 1b;Orientation;1
1;108;103;51;7;9;-5;-46;Fischer & Whitney (2014);Experiment 1b;Orientation;1
1;130;116;52;7;9;-14;-22;Fischer & Whitney (2014);Experiment 1b;Orientation;1
1;86;77;53;7;9;-9;44;Fischer & Whitney (2014);Experiment 1b;Orientation;1
1;1;6;54;7;9;5;85;Fischer & Whitney (2014);Experiment 1b;Orientation;1
1;131;141;55;7;9;10;50;Fischer & Whitney (2014);Experiment 1b;Orientation;1
1;107;115;56;7;9;8;24;Fischer & Whitney (2014);Experiment 1b;Orientation;1
1;15;19;57;7;9;4;-88;Fischer & Whitney (2014);Experiment 1b;Orientation;1
1;79;76;58;7;9;-3;-64;Fischer & Whitney (2014);Experiment 1b;Orientation;1
1;141;146;59;7;9;5;-62;Fischer & Whitney (2014);Experiment 1b;Orientation;1
1;100;108;60;7;9;8;41;Fischer & Whitney (2014);Experiment 1b;Orientation;1
1;149;138;61;7;9;-11;-49;Fischer & Whitney (2014);Experiment 1b;Orientation;1
1;108;112;62;7;9;4;41;Fischer & Whitney (2014);Experiment 1b;Orientation;1
1;49;61;63;7;9;12;59;Fischer & Whitney (2014);Experiment 1b;Orientation;1
1;90;82;64;7;9;-8;-41;Fischer & Whitney (2014);Experiment 1b;Orientation;1
1;151;153;65;7;9;2;-61;Fischer & Whitney (2014);Experiment 1b;Orientation;1
1;151;155;66;7;9;4;0;Fischer & Whitney (2014);Experiment 1b;Orientation;1
1;18;18;67;7;9;0;-47;Fischer & Whitney (2014);Experiment 1b;Orientation;1
1;122;116;68;7;9;-6;76;Fischer & Whitney (2014);Experiment 1b;Orientation;1
1;84;81;69;7;9;-3;38;Fischer & Whitney (2014);Experiment 1b;Orientation;1
1;142;142;70;7;9;0;-58;Fischer & Whitney (2014);Experiment 1b;Orientation;1
1;99;100;71;7;9;1;43;Fischer & Whitney (2014);Experiment 1b;Orientation;1
1;60;65;72;7;9;5;39;Fischer & Whitney (2014);Experiment 1b;Orientation;1
1;26;30;73;7;9;4;34;Fischer & Whitney (2014);Experiment 1b;Orientation;1
1;24;24;74;7;9;0;2;Fischer & Whitney (2014);Experiment 1b;Orientation;1
1;164;158;75;7;9;-6;40;Fischer & Whitney (2014);Experiment 1b;Orientation;1
1;20;26;76;7;9;6;-36;Fischer & Whitney (2014);Experiment 1b;Orientation;1
1;178;174;77;7;9;-4;22;Fischer & Whitney (2014);Experiment 1b;Orientation;1
1;94;97;78;7;9;3;84;Fischer & Whitney (2014);Experiment 1b;Orientation;1
1;5;6;79;7;9;1;89;Fischer & Whitney (2014);Experiment 1b;Orientation;1
1;92;88;80;7;9;-4;-87;Fischer & Whitney (2014);Experiment 1b;Orientation;1
1;43;58;81;7;9;15;49;Fischer & Whitney (2014);Experiment 1b;Orientation;1
1;79;72;82;7;9;-7;-36;Fischer & Whitney (2014);Experiment 1b;Orientation;1
1;40;42;83;7;9;2;39;Fischer & Whitney (2014);Experiment 1b;Orientation;1
1;85;83;84;7;9;-2;-45;Fischer & Whitney (2014);Experiment 1b;Orientation;1
1;66;74;85;7;9;8;19;Fischer & Whitney (2014);Experiment 1b;Orientation;1
1;165;163;86;7;9;-2;81;Fischer & Whitney (2014);Experiment 1b;Orientation;1
1;45;43;87;7;9;-2;-60;Fischer & Whitney (2014);Experiment 1b;Orientation;1
1;26;35;88;7;9;9;19;Fischer & Whitney (2014);Experiment 1b;Orientation;1
1;164;165;89;7;9;1;42;Fischer & Whitney (2014);Experiment 1b;Orientation;1
1;134;153;90;7;9;19;30;Fischer & Whitney (2014);Experiment 1b;Orientation;1
1;79;81;91;7;9;2;55;Fischer & Whitney (2014);Experiment 1b;Orientation;1
1;94;95;92;7;9;1;-15;Fischer & Whitney (2014);Experiment 1b;Orientation;1
1;14;15;93;7;9;1;80;Fischer & Whitney (2014);Experiment 1b;Orientation;1
1;36;26;94;7;9;-10;-22;Fischer & Whitney (2014);Experiment 1b;Orientation;1
1;146;140;95;7;9;-6;70;Fischer & Whitney (2014);Experiment 1b;Orientation;1
1;66;65;96;7;9;-1;80;Fischer & Whitney (2014);Experiment 1b;Orientation;1
1;94;99;97;7;9;5;-28;Fischer & Whitney (2014);Experiment 1b;Orientation;1
1;2;7;98;7;9;5;-88;Fischer & Whitney (2014);Experiment 1b;Orientation;1
1;36;34;99;7;9;-2;-34;Fischer & Whitney (2014);Experiment 1b;Orientation;1
1;70;67;100;7;9;-3;-34;Fischer & Whitney (2014);Experiment 1b;Orientation;1
1;124;119;101;7;9;-5;-54;Fischer & Whitney (2014);Experiment 1b;Orientation;1
1;132;120;102;7;9;-12;-8;Fischer & Whitney (2014);Experiment 1b;Orientation;1
1;90;101;103;7;9;11;42;Fischer & Whitney (2014);Experiment 1b;Orientation;1
1;5;10;104;7;9;5;85;Fischer & Whitney (2014);Experiment 1b;Orientation;1
1;165;163;1;8;9;-2;20;Fischer & Whitney (2014);Experiment 1b;Orientation;1
1;43;44;2;8;9;1;-58;Fischer & Whitney (2014);Experiment 1b;Orientation;1
1;129;130;3;8;9;1;-86;Fischer & Whitney (2014);Experiment 1b;Orientation;1
1;98;107;4;8;9;9;31;Fischer & Whitney (2014);Experiment 1b;Orientation;1
1;68;66;5;8;9;-2;30;Fischer & Whitney (2014);Experiment 1b;Orientation;1
1;36;42;6;8;9;6;32;Fischer & Whitney (2014);Experiment 1b;Orientation;1
1;38;45;7;8;9;7;-2;Fischer & Whitney (2014);Experiment 1b;Orientation;1
1;0;172;8;8;9;-8;38;Fischer & Whitney (2014);Experiment 1b;Orientation;1
1;57;62;9;8;9;5;-57;Fischer & Whitney (2014);Experiment 1b;Orientation;1
1;104;108;10;8;9;4;-47;Fischer & Whitney (2014);Experiment 1b;Orientation;1
1;117;111;11;8;9;-6;-13;Fischer & Whitney (2014);Experiment 1b;Orientation;1
1;106;110;12;8;9;4;11;Fischer & Whitney (2014);Experiment 1b;Orientation;1
1;25;21;13;8;9;-4;81;Fischer & Whitney (2014);Experiment 1b;Orientation;1
1;85;81;14;8;9;-4;-60;Fischer & Whitney (2014);Experiment 1b;Orientation;1
1;122;113;15;8;9;-9;-37;Fischer & Whitney (2014);Experiment 1b;Orientation;1
1;58;74;16;8;9;16;64;Fischer & Whitney (2014);Experiment 1b;Orientation;1
1;140;136;17;8;9;-4;-82;Fischer & Whitney (2014);Experiment 1b;Orientation;1
1;138;140;18;8;9;2;2;Fischer & Whitney (2014);Experiment 1b;Orientation;1
1;72;73;19;8;9;1;66;Fischer & Whitney (2014);Experiment 1b;Orientation;1
1;150;151;20;8;9;1;-78;Fischer & Whitney (2014);Experiment 1b;Orientation;1
1;9;13;21;8;9;4;-39;Fischer & Whitney (2014);Experiment 1b;Orientation;1
1;49;52;22;8;9;3;-40;Fischer & Whitney (2014);Experiment 1b;Orientation;1
1;9;18;23;8;9;9;40;Fischer & Whitney (2014);Experiment 1b;Orientation;1
1;47;45;24;8;9;-2;-38;Fischer & Whitney (2014);Experiment 1b;Orientation;1
1;16;24;25;8;9;8;31;Fischer & Whitney (2014);Experiment 1b;Orientation;1
1;44;44;26;8;9;0;-28;Fischer & Whitney (2014);Experiment 1b;Orientation;1
1;154;141;27;8;9;-13;70;Fischer & Whitney (2014);Experiment 1b;Orientation;1
1;173;166;28;8;9;-7;-19;Fischer & Whitney (2014);Experiment 1b;Orientation;1
1;69;76;29;8;9;7;-76;Fischer & Whitney (2014);Experiment 1b;Orientation;1
1;137;135;30;8;9;-2;-68;Fischer & Whitney (2014);Experiment 1b;Orientation;1
1;118;120;31;8;9;2;19;Fischer & Whitney (2014);Experiment 1b;Orientation;1
1;116;115;32;8;9;-1;2;Fischer & Whitney (2014);Experiment 1b;Orientation;1
1;58;67;33;8;9;9;58;Fischer & Whitney (2014);Experiment 1b;Orientation;1
1;144;139;34;8;9;-5;-86;Fischer & Whitney (2014);Experiment 1b;Orientation;1
1;18;18;35;8;9;0;-54;Fischer & Whitney (2014);Experiment 1b;Orientation;1
1;102;106;36;8;9;4;-84;Fischer & Whitney (2014);Experiment 1b;Orientation;1
1;133;123;37;8;9;-10;-31;Fischer & Whitney (2014);Experiment 1b;Orientation;1
1;48;53;38;8;9;5;85;Fischer & Whitney (2014);Experiment 1b;Orientation;1
1;97;101;39;8;9;4;-49;Fischer & Whitney (2014);Experiment 1b;Orientation;1
1;41;46;40;8;9;5;56;Fischer & Whitney (2014);Experiment 1b;Orientation;1
1;107;109;41;8;9;2;-66;Fischer & Whitney (2014);Experiment 1b;Orientation;1
1;144;136;42;8;9;-8;-37;Fischer & Whitney (2014);Experiment 1b;Orientation;1
1;37;39;43;8;9;2;-73;Fischer & Whitney (2014);Experiment 1b;Orientation;1
1;36;39;44;8;9;3;1;Fischer & Whitney (2014);Experiment 1b;Orientation;1
1;177;170;45;8;9;-7;39;Fischer & Whitney (2014);Experiment 1b;Orientation;1
1;153;161;46;8;9;8;24;Fischer & Whitney (2014);Experiment 1b;Orientation;1
1;93;93;47;8;9;0;60;Fischer & Whitney (2014);Experiment 1b;Orientation;1
1;149;150;48;8;9;1;-56;Fischer & Whitney (2014);Experiment 1b;Orientation;1
1;136;139;49;8;9;3;13;Fischer & Whitney (2014);Experiment 1b;Orientation;1
1;100;104;50;8;9;4;36;Fischer & Whitney (2014);Experiment 1b;Orientation;1
1;101;106;51;8;9;5;-1;Fischer & Whitney (2014);Experiment 1b;Orientation;1
1;113;104;52;8;9;-9;-12;Fischer & Whitney (2014);Experiment 1b;Orientation;1
1;114;107;53;8;9;-7;-1;Fischer & Whitney (2014);Experiment 1b;Orientation;1
1;168;162;54;8;9;-6;-54;Fischer & Whitney (2014);Experiment 1b;Orientation;1
1;139;152;55;8;9;13;29;Fischer & Whitney (2014);Experiment 1b;Orientation;1
1;74;73;56;8;9;-1;65;Fischer & Whitney (2014);Experiment 1b;Orientation;1
1;73;72;57;8;9;-1;1;Fischer & Whitney (2014);Experiment 1b;Orientation;1
1;32;52;58;8;9;20;41;Fischer & Whitney (2014);Experiment 1b;Orientation;1
1;16;32;59;8;9;16;16;Fischer & Whitney (2014);Experiment 1b;Orientation;1
1;19;25;60;8;9;6;-3;Fischer & Whitney (2014);Experiment 1b;Orientation;1
1;98;104;61;8;9;6;-79;Fischer & Whitney (2014);Experiment 1b;Orientation;1
1;126;111;62;8;9;-15;-28;Fischer & Whitney (2014);Experiment 1b;Orientation;1
1;41;55;63;8;9;14;85;Fischer & Whitney (2014);Experiment 1b;Orientation;1
1;13;29;64;8;9;16;28;Fischer & Whitney (2014);Experiment 1b;Orientation;1
1;177;170;65;8;9;-7;16;Fischer & Whitney (2014);Experiment 1b;Orientation;1
1;125;117;66;8;9;-8;52;Fischer & Whitney (2014);Experiment 1b;Orientation;1
1;178;169;67;8;9;-9;-53;Fischer & Whitney (2014);Experiment 1b;Orientation;1
1;31;31;68;8;9;0;-33;Fischer & Whitney (2014);Experiment 1b;Orientation;1
1;35;25;69;8;9;-10;-4;Fischer & Whitney (2014);Experiment 1b;Orientation;1
1;94;98;70;8;9;4;-59;Fischer & Whitney (2014);Experiment 1b;Orientation;1
1;70;74;71;8;9;4;24;Fischer & Whitney (2014);Experiment 1b;Orientation;1
1;176;166;72;8;9;-10;74;Fischer & Whitney (2014);Experiment 1b;Orientation;1
1;28;29;73;8;9;1;-32;Fischer & Whitney (2014);Experiment 1b;Orientation;1
1;104;111;74;8;9;7;-76;Fischer & Whitney (2014);Experiment 1b;Orientation;1
1;56;65;75;8;9;9;48;Fischer & Whitney (2014);Experiment 1b;Orientation;1
1;179;173;76;8;9;-6;57;Fischer & Whitney (2014);Experiment 1b;Orientation;1
1;89;91;77;8;9;2;90;Fischer & Whitney (2014);Experiment 1b;Orientation;1
1;41;58;78;8;9;17;48;Fischer & Whitney (2014);Experiment 1b;Orientation;1
1;119;112;79;8;9;-7;-78;Fischer & Whitney (2014);Experiment 1b;Orientation;1
1;92;95;80;8;9;3;27;Fischer & Whitney (2014);Experiment 1b;Orientation;1
1;38;41;81;8;9;3;54;Fischer & Whitney (2014);Experiment 1b;Orientation;1
1;135;148;82;8;9;13;83;Fischer & Whitney (2014);Experiment 1b;Orientation;1
1;87;93;83;8;9;6;48;Fischer & Whitney (2014);Experiment 1b;Orientation;1
1;165;167;84;8;9;2;-78;Fischer & Whitney (2014);Experiment 1b;Orientation;1
1;128;137;85;8;9;9;37;Fischer & Whitney (2014);Experiment 1b;Orientation;1
1;133;133;86;8;9;0;-5;Fischer & Whitney (2014);Experiment 1b;Orientation;1
1;39;56;87;8;9;17;-86;Fischer & Whitney (2014);Experiment 1b;Orientation;1
1;131;127;88;8;9;-4;88;Fischer & Whitney (2014);Experiment 1b;Orientation;1
1;107;113;89;8;9;6;24;Fischer & Whitney (2014);Experiment 1b;Orientation;1
1;90;93;90;8;9;3;17;Fischer & Whitney (2014);Experiment 1b;Orientation;1
1;110;105;91;8;9;-5;-20;Fischer & Whitney (2014);Experiment 1b;Orientation;1
1;170;164;92;8;9;-6;-60;Fischer & Whitney (2014);Experiment 1b;Orientation;1
1;150;155;93;8;9;5;20;Fischer & Whitney (2014);Experiment 1b;Orientation;1
1;85;83;94;8;9;-2;65;Fischer & Whitney (2014);Experiment 1b;Orientation;1
1;96;98;95;8;9;2;-11;Fischer & Whitney (2014);Experiment 1b;Orientation;1
1;76;81;96;8;9;5;20;Fischer & Whitney (2014);Experiment 1b;Orientation;1
1;93;90;97;8;9;-3;-17;Fischer & Whitney (2014);Experiment 1b;Orientation;1
1;40;44;98;8;9;4;53;Fischer & Whitney (2014);Experiment 1b;Orientation;1
1;137;137;99;8;9;0;83;Fischer & Whitney (2014);Experiment 1b;Orientation;1
1;27;35;100;8;9;8;-70;Fischer & Whitney (2014);Experiment 1b;Orientation;1
1;110;117;101;8;9;7;-83;Fischer & Whitney (2014);Experiment 1b;Orientation;1
1;63;63;102;8;9;0;47;Fischer & Whitney (2014);Experiment 1b;Orientation;1
1;90;88;103;8;9;-2;-27;Fischer & Whitney (2014);Experiment 1b;Orientation;1
1;145;149;104;8;9;4;-55;Fischer & Whitney (2014);Experiment 1b;Orientation;1
2;114;127;1;1;9;13;NaN;Fischer & Whitney (2014);Experiment 1b;Orientation;1
2;19;18;2;1;9;-1;-85;Fischer & Whitney (2014);Experiment 1b;Orientation;1
2;1;14;3;1;9;13;18;Fischer & Whitney (2014);Experiment 1b;Orientation;1
2;82;62;4;1;9;-20;-81;Fischer & Whitney (2014);Experiment 1b;Orientation;1
2;151;152;5;1;9;1;-69;Fischer & Whitney (2014);Experiment 1b;Orientation;1
2;107;112;6;1;9;5;44;Fischer & Whitney (2014);Experiment 1b;Orientation;1
2;119;131;7;1;9;12;-12;Fischer & Whitney (2014);Experiment 1b;Orientation;1
2;51;64;8;1;9;13;68;Fischer & Whitney (2014);Experiment 1b;Orientation;1
2;35;37;9;1;9;2;16;Fischer & Whitney (2014);Experiment 1b;Orientation;1
2;151;140;10;1;9;-11;64;Fischer & Whitney (2014);Experiment 1b;Orientation;1
2;76;86;11;1;9;10;75;Fischer & Whitney (2014);Experiment 1b;Orientation;1
2;39;32;12;1;9;-7;37;Fischer & Whitney (2014);Experiment 1b;Orientation;1
2;171;173;13;1;9;2;48;Fischer & Whitney (2014);Experiment 1b;Orientation;1
2;123;120;14;1;9;-3;48;Fischer & Whitney (2014);Experiment 1b;Orientation;1
2;22;112;15;1;9;90;-79;Fischer & Whitney (2014);Experiment 1b;Orientation;1
2;148;149;16;1;9;1;54;Fischer & Whitney (2014);Experiment 1b;Orientation;1
2;173;175;17;1;9;2;-25;Fischer & Whitney (2014);Experiment 1b;Orientation;1
2;105;112;18;1;9;7;68;Fischer & Whitney (2014);Experiment 1b;Orientation;1
2;141;156;19;1;9;15;-36;Fischer & Whitney (2014);Experiment 1b;Orientation;1
2;42;42;20;1;9;0;-81;Fischer & Whitney (2014);Experiment 1b;Orientation;1
2;20;25;21;1;9;5;22;Fischer & Whitney (2014);Experiment 1b;Orientation;1
2;156;163;22;1;9;7;44;Fischer & Whitney (2014);Experiment 1b;Orientation;1
2;42;53;23;1;9;11;-66;Fischer & Whitney (2014);Experiment 1b;Orientation;1
2;66;178;24;1;9;-68;-24;Fischer & Whitney (2014);Experiment 1b;Orientation;1
2;79;72;25;1;9;-7;-13;Fischer & Whitney (2014);Experiment 1b;Orientation;1
2;98;123;26;1;9;25;-19;Fischer & Whitney (2014);Experiment 1b;Orientation;1
2;110;105;27;1;9;-5;-12;Fischer & Whitney (2014);Experiment 1b;Orientation;1
2;150;162;28;1;9;12;-40;Fischer & Whitney (2014);Experiment 1b;Orientation;1
2;151;160;29;1;9;9;-1;Fischer & Whitney (2014);Experiment 1b;Orientation;1
2;139;138;30;1;9;-1;12;Fischer & Whitney (2014);Experiment 1b;Orientation;1
2;65;52;31;1;9;-13;74;Fischer & Whitney (2014);Experiment 1b;Orientation;1
2;110;121;32;1;9;11;-45;Fischer & Whitney (2014);Experiment 1b;Orientation;1
2;125;111;33;1;9;-14;-15;Fischer & Whitney (2014);Experiment 1b;Orientation;1
2;152;122;34;1;9;-30;-27;Fischer & Whitney (2014);Experiment 1b;Orientation;1
2;23;22;35;1;9;-1;-51;Fischer & Whitney (2014);Experiment 1b;Orientation;1
2;15;18;36;1;9;3;8;Fischer & Whitney (2014);Experiment 1b;Orientation;1
2;93;91;37;1;9;-2;-78;Fischer & Whitney (2014);Experiment 1b;Orientation;1
2;122;132;38;1;9;10;-29;Fischer & Whitney (2014);Experiment 1b;Orientation;1
2;137;142;39;1;9;5;-15;Fischer & Whitney (2014);Experiment 1b;Orientation;1
2;154;173;40;1;9;19;-17;Fischer & Whitney (2014);Experiment 1b;Orientation;1
2;163;162;41;1;9;-1;-9;Fischer & Whitney (2014);Experiment 1b;Orientation;1
2;119;105;42;1;9;-14;44;Fischer & Whitney (2014);Experiment 1b;Orientation;1
2;40;51;43;1;9;11;79;Fischer & Whitney (2014);Experiment 1b;Orientation;1
2;141;130;44;1;9;-11;79;Fischer & Whitney (2014);Experiment 1b;Orientation;1
2;129;115;45;1;9;-14;12;Fischer & Whitney (2014);Experiment 1b;Orientation;1
2;166;47;46;1;9;61;-37;Fischer & Whitney (2014);Experiment 1b;Orientation;1
2;114;116;47;1;9;2;52;Fischer & Whitney (2014);Experiment 1b;Orientation;1
2;30;29;48;1;9;-1;84;Fischer & Whitney (2014);Experiment 1b;Orientation;1
2;127;100;49;1;9;-27;83;Fischer & Whitney (2014);Experiment 1b;Orientation;1
2;15;37;50;1;9;22;-68;Fischer & Whitney (2014);Experiment 1b;Orientation;1
2;94;99;51;1;9;5;-79;Fischer & Whitney (2014);Experiment 1b;Orientation;1
2;143;160;52;1;9;17;-49;Fischer & Whitney (2014);Experiment 1b;Orientation;1
2;64;52;53;1;9;-12;79;Fischer & Whitney (2014);Experiment 1b;Orientation;1
2;81;80;54;1;9;-1;-17;Fischer & Whitney (2014);Experiment 1b;Orientation;1
2;72;82;55;1;9;10;9;Fischer & Whitney (2014);Experiment 1b;Orientation;1
2;119;118;56;1;9;-1;-47;Fischer & Whitney (2014);Experiment 1b;Orientation;1
2;96;120;57;1;9;24;23;Fischer & Whitney (2014);Experiment 1b;Orientation;1
2;95;107;58;1;9;12;1;Fischer & Whitney (2014);Experiment 1b;Orientation;1
2;22;27;59;1;9;5;73;Fischer & Whitney (2014);Experiment 1b;Orientation;1
2;169;159;60;1;9;-10;33;Fischer & Whitney (2014);Experiment 1b;Orientation;1
2;172;173;61;1;9;1;-3;Fischer & Whitney (2014);Experiment 1b;Orientation;1
2;113;123;62;1;9;10;59;Fischer & Whitney (2014);Experiment 1b;Orientation;1
2;109;99;63;1;9;-10;4;Fischer & Whitney (2014);Experiment 1b;Orientation;1
2;168;172;64;1;9;4;-59;Fischer & Whitney (2014);Experiment 1b;Orientation;1
2;50;159;65;1;9;-71;-62;Fischer & Whitney (2014);Experiment 1b;Orientation;1
2;11;17;66;1;9;6;39;Fischer & Whitney (2014);Experiment 1b;Orientation;1
2;174;174;67;1;9;0;17;Fischer & Whitney (2014);Experiment 1b;Orientation;1
2;38;22;68;1;9;-16;-44;Fischer & Whitney (2014);Experiment 1b;Orientation;1
2;51;53;69;1;9;2;-13;Fischer & Whitney (2014);Experiment 1b;Orientation;1
2;125;125;70;1;9;0;-74;Fischer & Whitney (2014);Experiment 1b;Orientation;1
2;163;146;71;1;9;-17;-38;Fischer & Whitney (2014);Experiment 1b;Orientation;1
2;162;152;72;1;9;-10;1;Fischer & Whitney (2014);Experiment 1b;Orientation;1
2;150;169;73;1;9;19;12;Fischer & Whitney (2014);Experiment 1b;Orientation;1
2;162;161;74;1;9;-1;-12;Fischer & Whitney (2014);Experiment 1b;Orientation;1
2;136;140;75;1;9;4;26;Fischer & Whitney (2014);Experiment 1b;Orientation;1
2;129;121;76;1;9;-8;7;Fischer & Whitney (2014);Experiment 1b;Orientation;1
2;23;50;77;1;9;27;-74;Fischer & Whitney (2014);Experiment 1b;Orientation;1
2;98;105;78;1;9;7;-75;Fischer & Whitney (2014);Experiment 1b;Orientation;1
2;88;103;79;1;9;15;10;Fischer & Whitney (2014);Experiment 1b;Orientation;1
2;136;130;80;1;9;-6;-48;Fischer & Whitney (2014);Experiment 1b;Orientation;1
2;153;153;81;1;9;0;-17;Fischer & Whitney (2014);Experiment 1b;Orientation;1
2;172;172;82;1;9;0;-19;Fischer & Whitney (2014);Experiment 1b;Orientation;1
2;101;119;83;1;9;18;71;Fischer & Whitney (2014);Experiment 1b;Orientation;1
2;102;107;84;1;9;5;-1;Fischer & Whitney (2014);Experiment 1b;Orientation;1
2;170;176;85;1;9;6;-68;Fischer & Whitney (2014);Experiment 1b;Orientation;1
2;14;17;86;1;9;3;-24;Fischer & Whitney (2014);Experiment 1b;Orientation;1
2;108;111;87;1;9;3;86;Fischer & Whitney (2014);Experiment 1b;Orientation;1
2;92;107;88;1;9;15;16;Fischer & Whitney (2014);Experiment 1b;Orientation;1
2;39;49;89;1;9;10;53;Fischer & Whitney (2014);Experiment 1b;Orientation;1
2;34;31;90;1;9;-3;5;Fischer & Whitney (2014);Experiment 1b;Orientation;1
2;18;34;91;1;9;16;16;Fischer & Whitney (2014);Experiment 1b;Orientation;1
2;104;121;92;1;9;17;-86;Fischer & Whitney (2014);Experiment 1b;Orientation;1
2;154;141;93;1;9;-13;-50;Fischer & Whitney (2014);Experiment 1b;Orientation;1
2;100;111;94;1;9;11;54;Fischer & Whitney (2014);Experiment 1b;Orientation;1
2;126;131;95;1;9;5;-26;Fischer & Whitney (2014);Experiment 1b;Orientation;1
2;176;167;96;1;9;-9;-50;Fischer & Whitney (2014);Experiment 1b;Orientation;1
2;136;135;97;1;9;-1;40;Fischer & Whitney (2014);Experiment 1b;Orientation;1
2;165;152;98;1;9;-13;-29;Fischer & Whitney (2014);Experiment 1b;Orientation;1
2;49;20;99;1;9;-29;-64;Fischer & Whitney (2014);Experiment 1b;Orientation;1
2;93;95;100;1;9;2;-44;Fischer & Whitney (2014);Experiment 1b;Orientation;1
2;7;8;101;1;9;1;86;Fischer & Whitney (2014);Experiment 1b;Orientation;1
2;149;134;102;1;9;-15;38;Fischer & Whitney (2014);Experiment 1b;Orientation;1
2;0;178;103;1;9;-2;-31;Fischer & Whitney (2014);Experiment 1b;Orientation;1
2;62;67;104;1;9;5;-62;Fischer & Whitney (2014);Experiment 1b;Orientation;1
2;119;138;1;2;9;19;-57;Fischer & Whitney (2014);Experiment 1b;Orientation;1
2;178;174;2;2;9;-4;-59;Fischer & Whitney (2014);Experiment 1b;Orientation;1
2;67;53;3;2;9;-14;-69;Fischer & Whitney (2014);Experiment 1b;Orientation;1
2;63;56;4;2;9;-7;4;Fischer & Whitney (2014);Experiment 1b;Orientation;1
2;112;121;5;2;9;9;-49;Fischer & Whitney (2014);Experiment 1b;Orientation;1
2;121;133;6;2;9;12;-9;Fischer & Whitney (2014);Experiment 1b;Orientation;1
2;75;57;7;2;9;-18;46;Fischer & Whitney (2014);Experiment 1b;Orientation;1
2;87;60;8;2;9;-27;-12;Fischer & Whitney (2014);Experiment 1b;Orientation;1
2;60;59;9;2;9;-1;27;Fischer & Whitney (2014);Experiment 1b;Orientation;1
2;39;31;10;2;9;-8;21;Fischer & Whitney (2014);Experiment 1b;Orientation;1
2;54;33;11;2;9;-21;-15;Fischer & Whitney (2014);Experiment 1b;Orientation;1
2;98;87;12;2;9;-11;-44;Fischer & Whitney (2014);Experiment 1b;Orientation;1
2;161;154;13;2;9;-7;-63;Fischer & Whitney (2014);Experiment 1b;Orientation;1
2;20;178;14;2;9;-22;-39;Fischer & Whitney (2014);Experiment 1b;Orientation;1
2;45;45;15;2;9;0;-25;Fischer & Whitney (2014);Experiment 1b;Orientation;1
2;95;118;16;2;9;23;-50;Fischer & Whitney (2014);Experiment 1b;Orientation;1
2;45;44;17;2;9;-1;50;Fischer & Whitney (2014);Experiment 1b;Orientation;1
2;77;70;18;2;9;-7;-32;Fischer & Whitney (2014);Experiment 1b;Orientation;1
2;78;75;19;2;9;-3;-1;Fischer & Whitney (2014);Experiment 1b;Orientation;1
2;130;140;20;2;9;10;-52;Fischer & Whitney (2014);Experiment 1b;Orientation;1
2;163;173;21;2;9;10;-33;Fischer & Whitney (2014);Experiment 1b;Orientation;1
2;119;124;22;2;9;5;44;Fischer & Whitney (2014);Experiment 1b;Orientation;1
2;61;55;23;2;9;-6;58;Fischer & Whitney (2014);Experiment 1b;Orientation;1
2;161;153;24;2;9;-8;80;Fischer & Whitney (2014);Experiment 1b;Orientation;1
2;101;101;25;2;9;0;60;Fischer & Whitney (2014);Experiment 1b;Orientation;1
2;95;103;26;2;9;8;6;Fischer & Whitney (2014);Experiment 1b;Orientation;1
2;12;17;27;2;9;5;83;Fischer & Whitney (2014);Experiment 1b;Orientation;1
2;70;81;28;2;9;11;-58;Fischer & Whitney (2014);Experiment 1b;Orientation;1
2;23;26;29;2;9;3;47;Fischer & Whitney (2014);Experiment 1b;Orientation;1
2;13;16;30;2;9;3;10;Fischer & Whitney (2014);Experiment 1b;Orientation;1
2;105;115;31;2;9;10;88;Fischer & Whitney (2014);Experiment 1b;Orientation;1
2;81;62;32;2;9;-19;24;Fischer & Whitney (2014);Experiment 1b;Orientation;1
2;107;133;33;2;9;26;-26;Fischer & Whitney (2014);Experiment 1b;Orientation;1
2;154;151;34;2;9;-3;-47;Fischer & Whitney (2014);Experiment 1b;Orientation;1
2;87;87;35;2;9;0;67;Fischer & Whitney (2014);Experiment 1b;Orientation;1
2;103;110;36;2;9;7;-16;Fischer & Whitney (2014);Experiment 1b;Orientation;1
2;29;33;37;2;9;4;74;Fischer & Whitney (2014);Experiment 1b;Orientation;1
2;90;84;38;2;9;-6;-61;Fischer & Whitney (2014);Experiment 1b;Orientation;1
2;78;72;39;2;9;-6;12;Fischer & Whitney (2014);Experiment 1b;Orientation;1
2;17;16;40;2;9;-1;61;Fischer & Whitney (2014);Experiment 1b;Orientation;1
2;83;85;41;2;9;2;-66;Fischer & Whitney (2014);Experiment 1b;Orientation;1
2;125;120;42;2;9;-5;-42;Fischer & Whitney (2014);Experiment 1b;Orientation;1
2;68;67;43;2;9;-1;57;Fischer & Whitney (2014);Experiment 1b;Orientation;1
2;150;143;44;2;9;-7;-82;Fischer & Whitney (2014);Experiment 1b;Orientation;1
2;88;98;45;2;9;10;62;Fischer & Whitney (2014);Experiment 1b;Orientation;1
2;26;33;46;2;9;7;62;Fischer & Whitney (2014);Experiment 1b;Orientation;1
2;173;168;47;2;9;-5;33;Fischer & Whitney (2014);Experiment 1b;Orientation;1
2;178;178;48;2;9;0;-5;Fischer & Whitney (2014);Experiment 1b;Orientation;1
2;152;144;49;2;9;-8;26;Fischer & Whitney (2014);Experiment 1b;Orientation;1
2;10;29;50;2;9;19;-38;Fischer & Whitney (2014);Experiment 1b;Orientation;1
2;107;108;51;2;9;1;83;Fischer & Whitney (2014);Experiment 1b;Orientation;1
2;104;106;52;2;9;2;3;Fischer & Whitney (2014);Experiment 1b;Orientation;1
2;99;99;53;2;9;0;5;Fischer & Whitney (2014);Experiment 1b;Orientation;1
2;96;101;54;2;9;5;3;Fischer & Whitney (2014);Experiment 1b;Orientation;1
2;140;130;55;2;9;-10;-44;Fischer & Whitney (2014);Experiment 1b;Orientation;1
2;92;105;56;2;9;13;48;Fischer & Whitney (2014);Experiment 1b;Orientation;1
2;12;11;57;2;9;-1;80;Fischer & Whitney (2014);Experiment 1b;Orientation;1
2;76;76;58;2;9;0;-64;Fischer & Whitney (2014);Experiment 1b;Orientation;1
2;85;82;59;2;9;-3;-9;Fischer & Whitney (2014);Experiment 1b;Orientation;1
2;150;148;60;2;9;-2;-65;Fischer & Whitney (2014);Experiment 1b;Orientation;1
2;18;30;61;2;9;12;-48;Fischer & Whitney (2014);Experiment 1b;Orientation;1
2;97;97;62;2;9;0;-79;Fischer & Whitney (2014);Experiment 1b;Orientation;1
2;129;135;63;2;9;6;-32;Fischer & Whitney (2014);Experiment 1b;Orientation;1
2;142;140;64;2;9;-2;-13;Fischer & Whitney (2014);Experiment 1b;Orientation;1
2;172;167;65;2;9;-5;-30;Fischer & Whitney (2014);Experiment 1b;Orientation;1
2;101;102;66;2;9;1;71;Fischer & Whitney (2014);Experiment 1b;Orientation;1
2;157;146;67;2;9;-11;-56;Fischer & Whitney (2014);Experiment 1b;Orientation;1
2;58;47;68;2;9;-11;-81;Fischer & Whitney (2014);Experiment 1b;Orientation;1
2;13;34;69;2;9;21;45;Fischer & Whitney (2014);Experiment 1b;Orientation;1
2;125;132;70;2;9;7;68;Fischer & Whitney (2014);Experiment 1b;Orientation;1
2;153;147;71;2;9;-6;-28;Fischer & Whitney (2014);Experiment 1b;Orientation;1
2;114;111;72;2;9;-3;39;Fischer & Whitney (2014);Experiment 1b;Orientation;1
2;176;176;73;2;9;0;-62;Fischer & Whitney (2014);Experiment 1b;Orientation;1
2;79;66;74;2;9;-13;-83;Fischer & Whitney (2014);Experiment 1b;Orientation;1
2;52;60;75;2;9;8;27;Fischer & Whitney (2014);Experiment 1b;Orientation;1
2;91;81;76;2;9;-10;-39;Fischer & Whitney (2014);Experiment 1b;Orientation;1
2;122;131;77;2;9;9;-31;Fischer & Whitney (2014);Experiment 1b;Orientation;1
2;1;10;78;2;9;9;-59;Fischer & Whitney (2014);Experiment 1b;Orientation;1
2;6;2;79;2;9;-4;-5;Fischer & Whitney (2014);Experiment 1b;Orientation;1
2;160;153;80;2;9;-7;26;Fischer & Whitney (2014);Experiment 1b;Orientation;1
2;12;15;81;2;9;3;-32;Fischer & Whitney (2014);Experiment 1b;Orientation;1
2;128;127;82;2;9;-1;64;Fischer & Whitney (2014);Experiment 1b;Orientation;1
2;125;129;83;2;9;4;3;Fischer & Whitney (2014);Experiment 1b;Orientation;1
2;79;68;84;2;9;-11;46;Fischer & Whitney (2014);Experiment 1b;Orientation;1
2;27;51;85;2;9;24;52;Fischer & Whitney (2014);Experiment 1b;Orientation;1
2;24;29;86;2;9;5;3;Fischer & Whitney (2014);Experiment 1b;Orientation;1
2;36;41;87;2;9;5;-12;Fischer & Whitney (2014);Experiment 1b;Orientation;1
2;25;34;88;2;9;9;11;Fischer & Whitney (2014);Experiment 1b;Orientation;1
2;99;115;89;2;9;16;-74;Fischer & Whitney (2014);Experiment 1b;Orientation;1
2;72;73;90;2;9;1;27;Fischer & Whitney (2014);Experiment 1b;Orientation;1
2;25;38;91;2;9;13;47;Fischer & Whitney (2014);Experiment 1b;Orientation;1
2;178;177;92;2;9;-1;27;Fischer & Whitney (2014);Experiment 1b;Orientation;1
2;73;71;93;2;9;-2;-75;Fischer & Whitney (2014);Experiment 1b;Orientation;1
2;122;123;94;2;9;1;-49;Fischer & Whitney (2014);Experiment 1b;Orientation;1
2;128;122;95;2;9;-6;-6;Fischer & Whitney (2014);Experiment 1b;Orientation;1
2;23;26;96;2;9;3;-75;Fischer & Whitney (2014);Experiment 1b;Orientation;1
2;161;162;97;2;9;1;42;Fischer & Whitney (2014);Experiment 1b;Orientation;1
2;145;171;98;2;9;26;16;Fischer & Whitney (2014);Experiment 1b;Orientation;1
2;57;59;99;2;9;2;88;Fischer & Whitney (2014);Experiment 1b;Orientation;1
2;159;156;100;2;9;-3;78;Fischer & Whitney (2014);Experiment 1b;Orientation;1
2;166;174;101;2;9;8;-7;Fischer & Whitney (2014);Experiment 1b;Orientation;1
2;102;106;102;2;9;4;64;Fischer & Whitney (2014);Experiment 1b;Orientation;1
2;135;121;103;2;9;-14;-33;Fischer & Whitney (2014);Experiment 1b;Orientation;1
2;109;117;104;2;9;8;26;Fischer & Whitney (2014);Experiment 1b;Orientation;1
2;118;119;1;3;9;1;-9;Fischer & Whitney (2014);Experiment 1b;Orientation;1
2;5;7;2;3;9;2;-67;Fischer & Whitney (2014);Experiment 1b;Orientation;1
2;127;118;3;3;9;-9;58;Fischer & Whitney (2014);Experiment 1b;Orientation;1
2;116;116;4;3;9;0;11;Fischer & Whitney (2014);Experiment 1b;Orientation;1
2;127;134;5;3;9;7;-11;Fischer & Whitney (2014);Experiment 1b;Orientation;1
2;2;5;6;3;9;3;-55;Fischer & Whitney (2014);Experiment 1b;Orientation;1
2;161;170;7;3;9;9;21;Fischer & Whitney (2014);Experiment 1b;Orientation;1
2;79;76;8;3;9;-3;82;Fischer & Whitney (2014);Experiment 1b;Orientation;1
2;168;175;9;3;9;7;-89;Fischer & Whitney (2014);Experiment 1b;Orientation;1
2;163;174;10;3;9;11;5;Fischer & Whitney (2014);Experiment 1b;Orientation;1
2;146;126;11;3;9;-20;17;Fischer & Whitney (2014);Experiment 1b;Orientation;1
2;29;44;12;3;9;15;-63;Fischer & Whitney (2014);Experiment 1b;Orientation;1
2;44;49;13;3;9;5;-15;Fischer & Whitney (2014);Experiment 1b;Orientation;1
2;21;23;14;3;9;2;23;Fischer & Whitney (2014);Experiment 1b;Orientation;1
2;80;85;15;3;9;5;-59;Fischer & Whitney (2014);Experiment 1b;Orientation;1
2;123;114;16;3;9;-9;-43;Fischer & Whitney (2014);Experiment 1b;Orientation;1
2;154;161;17;3;9;7;-31;Fischer & Whitney (2014);Experiment 1b;Orientation;1
2;108;113;18;3;9;5;46;Fischer & Whitney (2014);Experiment 1b;Orientation;1
2;151;157;19;3;9;6;-43;Fischer & Whitney (2014);Experiment 1b;Orientation;1
2;68;67;20;3;9;-1;83;Fischer & Whitney (2014);Experiment 1b;Orientation;1
2;150;158;21;3;9;8;-82;Fischer & Whitney (2014);Experiment 1b;Orientation;1
2;97;100;22;3;9;3;53;Fischer & Whitney (2014);Experiment 1b;Orientation;1
2;105;105;23;3;9;0;-8;Fischer & Whitney (2014);Experiment 1b;Orientation;1
2;97;103;24;3;9;6;8;Fischer & Whitney (2014);Experiment 1b;Orientation;1
2;40;54;25;3;9;14;57;Fischer & Whitney (2014);Experiment 1b;Orientation;1
2;28;36;26;3;9;8;12;Fischer & Whitney (2014);Experiment 1b;Orientation;1
2;114;116;27;3;9;2;-86;Fischer & Whitney (2014);Experiment 1b;Orientation;1
2;54;60;28;3;9;6;60;Fischer & Whitney (2014);Experiment 1b;Orientation;1
2;128;120;29;3;9;-8;-74;Fischer & Whitney (2014);Experiment 1b;Orientation;1
2;40;53;30;3;9;13;88;Fischer & Whitney (2014);Experiment 1b;Orientation;1
2;168;170;31;3;9;2;52;Fischer & Whitney (2014);Experiment 1b;Orientation;1
2;78;70;32;3;9;-8;90;Fischer & Whitney (2014);Experiment 1b;Orientation;1
2;168;169;33;3;9;1;-90;Fischer & Whitney (2014);Experiment 1b;Orientation;1
2;21;18;34;3;9;-3;-33;Fischer & Whitney (2014);Experiment 1b;Orientation;1
2;153;159;35;3;9;6;48;Fischer & Whitney (2014);Experiment 1b;Orientation;1
2;72;76;36;3;9;4;81;Fischer & Whitney (2014);Experiment 1b;Orientation;1
2;129;141;37;3;9;12;-57;Fischer & Whitney (2014);Experiment 1b;Orientation;1
2;165;165;38;3;9;0;-36;Fischer & Whitney (2014);Experiment 1b;Orientation;1
2;3;179;39;3;9;-4;-18;Fischer & Whitney (2014);Experiment 1b;Orientation;1
2;94;90;40;3;9;-4;89;Fischer & Whitney (2014);Experiment 1b;Orientation;1
2;142;146;41;3;9;4;-48;Fischer & Whitney (2014);Experiment 1b;Orientation;1
2;88;92;42;3;9;4;54;Fischer & Whitney (2014);Experiment 1b;Orientation;1
2;138;132;43;3;9;-6;-50;Fischer & Whitney (2014);Experiment 1b;Orientation;1
2;115;122;44;3;9;7;23;Fischer & Whitney (2014);Experiment 1b;Orientation;1
2;101;108;45;3;9;7;14;Fischer & Whitney (2014);Experiment 1b;Orientation;1
2;1;8;46;3;9;7;-80;Fischer & Whitney (2014);Experiment 1b;Orientation;1
2;46;43;47;3;9;-3;-45;Fischer & Whitney (2014);Experiment 1b;Orientation;1
2;90;85;48;3;9;-5;-44;Fischer & Whitney (2014);Experiment 1b;Orientation;1
2;63;69;49;3;9;6;27;Fischer & Whitney (2014);Experiment 1b;Orientation;1
2;72;69;50;3;9;-3;-9;Fischer & Whitney (2014);Experiment 1b;Orientation;1
2;94;89;51;3;9;-5;-22;Fischer & Whitney (2014);Experiment 1b;Orientation;1
2;9;29;52;3;9;20;85;Fischer & Whitney (2014);Experiment 1b;Orientation;1
2;167;167;53;3;9;0;22;Fischer & Whitney (2014);Experiment 1b;Orientation;1
2;7;16;54;3;9;9;-20;Fischer & Whitney (2014);Experiment 1b;Orientation;1
2;176;179;55;3;9;3;11;Fischer & Whitney (2014);Experiment 1b;Orientation;1
2;17;19;56;3;9;2;-21;Fischer & Whitney (2014);Experiment 1b;Orientation;1
2;61;65;57;3;9;4;-44;Fischer & Whitney (2014);Experiment 1b;Orientation;1
2;24;39;58;3;9;15;37;Fischer & Whitney (2014);Experiment 1b;Orientation;1
2;153;151;59;3;9;-2;51;Fischer & Whitney (2014);Experiment 1b;Orientation;1
2;41;41;60;3;9;0;-68;Fischer & Whitney (2014);Experiment 1b;Orientation;1
2;116;121;61;3;9;5;-75;Fischer & Whitney (2014);Experiment 1b;Orientation;1
2;81;80;62;3;9;-1;35;Fischer & Whitney (2014);Experiment 1b;Orientation;1
2;4;7;63;3;9;3;77;Fischer & Whitney (2014);Experiment 1b;Orientation;1
2;39;29;64;3;9;-10;-35;Fischer & Whitney (2014);Experiment 1b;Orientation;1
2;78;72;65;3;9;-6;-39;Fischer & Whitney (2014);Experiment 1b;Orientation;1
2;104;112;66;3;9;8;-26;Fischer & Whitney (2014);Experiment 1b;Orientation;1
2;11;20;67;3;9;9;-87;Fischer & Whitney (2014);Experiment 1b;Orientation;1
2;136;130;68;3;9;-6;55;Fischer & Whitney (2014);Experiment 1b;Orientation;1
2;115;134;69;3;9;19;21;Fischer & Whitney (2014);Experiment 1b;Orientation;1
2;24;25;70;3;9;1;-89;Fischer & Whitney (2014);Experiment 1b;Orientation;1
2;105;119;71;3;9;14;-81;Fischer & Whitney (2014);Experiment 1b;Orientation;1
2;32;39;72;3;9;7;73;Fischer & Whitney (2014);Experiment 1b;Orientation;1
2;89;79;73;3;9;-10;-57;Fischer & Whitney (2014);Experiment 1b;Orientation;1
2;141;133;74;3;9;-8;-52;Fischer & Whitney (2014);Experiment 1b;Orientation;1
2;145;152;75;3;9;7;-4;Fischer & Whitney (2014);Experiment 1b;Orientation;1
2;101;104;76;3;9;3;44;Fischer & Whitney (2014);Experiment 1b;Orientation;1
2;45;63;77;3;9;18;56;Fischer & Whitney (2014);Experiment 1b;Orientation;1
2;27;32;78;3;9;5;18;Fischer & Whitney (2014);Experiment 1b;Orientation;1
2;124;122;79;3;9;-2;83;Fischer & Whitney (2014);Experiment 1b;Orientation;1
2;1;3;80;3;9;2;-57;Fischer & Whitney (2014);Experiment 1b;Orientation;1
2;93;94;81;3;9;1;88;Fischer & Whitney (2014);Experiment 1b;Orientation;1
2;152;151;82;3;9;-1;-59;Fischer & Whitney (2014);Experiment 1b;Orientation;1
2;67;68;83;3;9;1;85;Fischer & Whitney (2014);Experiment 1b;Orientation;1
2;141;130;84;3;9;-11;-74;Fischer & Whitney (2014);Experiment 1b;Orientation;1
2;150;150;85;3;9;0;-9;Fischer & Whitney (2014);Experiment 1b;Orientation;1
2;107;121;86;3;9;14;43;Fischer & Whitney (2014);Experiment 1b;Orientation;1
2;4;6;87;3;9;2;-77;Fischer & Whitney (2014);Experiment 1b;Orientation;1
2;128;126;88;3;9;-2;56;Fischer & Whitney (2014);Experiment 1b;Orientation;1
2;29;49;89;3;9;20;-81;Fischer & Whitney (2014);Experiment 1b;Orientation;1
2;23;31;90;3;9;8;6;Fischer & Whitney (2014);Experiment 1b;Orientation;1
2;75;73;91;3;9;-2;-52;Fischer & Whitney (2014);Experiment 1b;Orientation;1
2;143;149;92;3;9;6;-68;Fischer & Whitney (2014);Experiment 1b;Orientation;1
2;23;23;93;3;9;0;-60;Fischer & Whitney (2014);Experiment 1b;Orientation;1
2;66;75;94;3;9;9;-43;Fischer & Whitney (2014);Experiment 1b;Orientation;1
2;25;40;95;3;9;15;41;Fischer & Whitney (2014);Experiment 1b;Orientation;1
2;85;84;96;3;9;-1;-60;Fischer & Whitney (2014);Experiment 1b;Orientation;1
2;1;1;97;3;9;0;84;Fischer & Whitney (2014);Experiment 1b;Orientation;1
2;72;75;98;3;9;3;-71;Fischer & Whitney (2014);Experiment 1b;Orientation;1
2;40;62;99;3;9;22;32;Fischer & Whitney (2014);Experiment 1b;Orientation;1
2;22;31;100;3;9;9;18;Fischer & Whitney (2014);Experiment 1b;Orientation;1
2;98;98;101;3;9;0;-76;Fischer & Whitney (2014);Experiment 1b;Orientation;1
2;125;112;102;3;9;-13;-27;Fischer & Whitney (2014);Experiment 1b;Orientation;1
2;90;98;103;3;9;8;35;Fischer & Whitney (2014);Experiment 1b;Orientation;1
2;21;23;104;3;9;2;69;Fischer & Whitney (2014);Experiment 1b;Orientation;1
2;160;160;1;4;9;0;41;Fischer & Whitney (2014);Experiment 1b;Orientation;1
2;57;59;2;4;9;2;-77;Fischer & Whitney (2014);Experiment 1b;Orientation;1
2;3;18;3;4;9;15;54;Fischer & Whitney (2014);Experiment 1b;Orientation;1
2;64;69;4;4;9;5;-61;Fischer & Whitney (2014);Experiment 1b;Orientation;1
2;92;96;5;4;9;4;-28;Fischer & Whitney (2014);Experiment 1b;Orientation;1
2;140;131;6;4;9;-9;-48;Fischer & Whitney (2014);Experiment 1b;Orientation;1
2;177;169;7;4;9;-8;-37;Fischer & Whitney (2014);Experiment 1b;Orientation;1
2;152;156;8;4;9;4;25;Fischer & Whitney (2014);Experiment 1b;Orientation;1
2;104;104;9;4;9;0;48;Fischer & Whitney (2014);Experiment 1b;Orientation;1
2;92;98;10;4;9;6;12;Fischer & Whitney (2014);Experiment 1b;Orientation;1
2;48;59;11;4;9;11;44;Fischer & Whitney (2014);Experiment 1b;Orientation;1
2;116;112;12;4;9;-4;-68;Fischer & Whitney (2014);Experiment 1b;Orientation;1
2;153;154;13;4;9;1;-37;Fischer & Whitney (2014);Experiment 1b;Orientation;1
2;7;14;14;4;9;7;-34;Fischer & Whitney (2014);Experiment 1b;Orientation;1
2;64;75;15;4;9;11;-57;Fischer & Whitney (2014);Experiment 1b;Orientation;1
2;83;85;16;4;9;2;-19;Fischer & Whitney (2014);Experiment 1b;Orientation;1
2;159;151;17;4;9;-8;-76;Fischer & Whitney (2014);Experiment 1b;Orientation;1
2;135;136;18;4;9;1;24;Fischer & Whitney (2014);Experiment 1b;Orientation;1
2;62;69;19;4;9;7;73;Fischer & Whitney (2014);Experiment 1b;Orientation;1
2;124;118;20;4;9;-6;-62;Fischer & Whitney (2014);Experiment 1b;Orientation;1
2;59;66;21;4;9;7;65;Fischer & Whitney (2014);Experiment 1b;Orientation;1
2;107;113;22;4;9;6;-48;Fischer & Whitney (2014);Experiment 1b;Orientation;1
2;126;126;23;4;9;0;-19;Fischer & Whitney (2014);Experiment 1b;Orientation;1
2;16;12;24;4;9;-4;-70;Fischer & Whitney (2014);Experiment 1b;Orientation;1
2;55;62;25;4;9;7;-39;Fischer & Whitney (2014);Experiment 1b;Orientation;1
2;114;111;26;4;9;-3;-59;Fischer & Whitney (2014);Experiment 1b;Orientation;1
2;150;148;27;4;9;-2;-36;Fischer & Whitney (2014);Experiment 1b;Orientation;1
2;89;90;28;4;9;1;61;Fischer & Whitney (2014);Experiment 1b;Orientation;1
2;93;92;29;4;9;-1;-4;Fischer & Whitney (2014);Experiment 1b;Orientation;1
2;55;74;30;4;9;19;38;Fischer & Whitney (2014);Experiment 1b;Orientation;1
2;15;23;31;4;9;8;40;Fischer & Whitney (2014);Experiment 1b;Orientation;1
2;148;146;32;4;9;-2;47;Fischer & Whitney (2014);Experiment 1b;Orientation;1
2;15;15;33;4;9;0;-47;Fischer & Whitney (2014);Experiment 1b;Orientation;1
2;96;94;34;4;9;-2;-81;Fischer & Whitney (2014);Experiment 1b;Orientation;1
2;67;74;35;4;9;7;29;Fischer & Whitney (2014);Experiment 1b;Orientation;1
2;45;63;36;4;9;18;22;Fischer & Whitney (2014);Experiment 1b;Orientation;1
2;97;100;37;4;9;3;-52;Fischer & Whitney (2014);Experiment 1b;Orientation;1
2;6;8;38;4;9;2;-89;Fischer & Whitney (2014);Experiment 1b;Orientation;1
2;51;62;39;4;9;11;-45;Fischer & Whitney (2014);Experiment 1b;Orientation;1
2;100;100;40;4;9;0;-49;Fischer & Whitney (2014);Experiment 1b;Orientation;1
2;129;118;41;4;9;-11;-29;Fischer & Whitney (2014);Experiment 1b;Orientation;1
2;175;165;42;4;9;-10;-46;Fischer & Whitney (2014);Experiment 1b;Orientation;1
2;119;118;43;4;9;-1;56;Fischer & Whitney (2014);Experiment 1b;Orientation;1
2;62;69;44;4;9;7;57;Fischer & Whitney (2014);Experiment 1b;Orientation;1
2;26;21;45;4;9;-5;36;Fischer & Whitney (2014);Experiment 1b;Orientation;1
2;137;140;46;4;9;3;69;Fischer & Whitney (2014);Experiment 1b;Orientation;1
2;160;162;47;4;9;2;-23;Fischer & Whitney (2014);Experiment 1b;Orientation;1
2;89;89;48;4;9;0;71;Fischer & Whitney (2014);Experiment 1b;Orientation;1
2;21;17;49;4;9;-4;68;Fischer & Whitney (2014);Experiment 1b;Orientation;1
2;43;34;50;4;9;-9;-22;Fischer & Whitney (2014);Experiment 1b;Orientation;1
2;100;99;51;4;9;-1;-57;Fischer & Whitney (2014);Experiment 1b;Orientation;1
2;67;82;52;4;9;15;33;Fischer & Whitney (2014);Experiment 1b;Orientation;1
2;11;17;53;4;9;6;56;Fischer & Whitney (2014);Experiment 1b;Orientation;1
2;62;74;54;4;9;12;-51;Fischer & Whitney (2014);Experiment 1b;Orientation;1
2;35;42;55;4;9;7;27;Fischer & Whitney (2014);Experiment 1b;Orientation;1
2;176;175;56;4;9;-1;39;Fischer & Whitney (2014);Experiment 1b;Orientation;1
2;108;110;57;4;9;2;68;Fischer & Whitney (2014);Experiment 1b;Orientation;1
2;103;105;58;4;9;2;5;Fischer & Whitney (2014);Experiment 1b;Orientation;1
2;66;74;59;4;9;8;37;Fischer & Whitney (2014);Experiment 1b;Orientation;1
2;147;161;60;4;9;14;-81;Fischer & Whitney (2014);Experiment 1b;Orientation;1
2;154;157;61;4;9;3;-7;Fischer & Whitney (2014);Experiment 1b;Orientation;1
2;158;160;62;4;9;2;-4;Fischer & Whitney (2014);Experiment 1b;Orientation;1
2;145;156;63;4;9;11;13;Fischer & Whitney (2014);Experiment 1b;Orientation;1
2;142;145;64;4;9;3;3;Fischer & Whitney (2014);Experiment 1b;Orientation;1
2;149;144;65;4;9;-5;-7;Fischer & Whitney (2014);Experiment 1b;Orientation;1
2;33;45;66;4;9;12;-64;Fischer & Whitney (2014);Experiment 1b;Orientation;1
2;161;158;67;4;9;-3;52;Fischer & Whitney (2014);Experiment 1b;Orientation;1
2;114;111;68;4;9;-3;47;Fischer & Whitney (2014);Experiment 1b;Orientation;1
2;151;146;69;4;9;-5;-37;Fischer & Whitney (2014);Experiment 1b;Orientation;1
2;15;14;70;4;9;-1;-44;Fischer & Whitney (2014);Experiment 1b;Orientation;1
2;127;117;71;4;9;-10;68;Fischer & Whitney (2014);Experiment 1b;Orientation;1
2;125;111;72;4;9;-14;2;Fischer & Whitney (2014);Experiment 1b;Orientation;1
2;88;91;73;4;9;3;37;Fischer & Whitney (2014);Experiment 1b;Orientation;1
2;126;120;74;4;9;-6;-38;Fischer & Whitney (2014);Experiment 1b;Orientation;1
2;47;61;75;4;9;14;79;Fischer & Whitney (2014);Experiment 1b;Orientation;1
2;27;49;76;4;9;22;20;Fischer & Whitney (2014);Experiment 1b;Orientation;1
2;67;75;77;4;9;8;-40;Fischer & Whitney (2014);Experiment 1b;Orientation;1
2;112;115;78;4;9;3;-45;Fischer & Whitney (2014);Experiment 1b;Orientation;1
2;83;82;79;4;9;-1;29;Fischer & Whitney (2014);Experiment 1b;Orientation;1
2;46;67;80;4;9;21;37;Fischer & Whitney (2014);Experiment 1b;Orientation;1
2;97;92;81;4;9;-5;-51;Fischer & Whitney (2014);Experiment 1b;Orientation;1
2;155;163;82;4;9;8;-58;Fischer & Whitney (2014);Experiment 1b;Orientation;1
2;121;113;83;4;9;-8;34;Fischer & Whitney (2014);Experiment 1b;Orientation;1
2;126;122;84;4;9;-4;-5;Fischer & Whitney (2014);Experiment 1b;Orientation;1
2;148;142;85;4;9;-6;-22;Fischer & Whitney (2014);Experiment 1b;Orientation;1
2;41;52;86;4;9;11;-73;Fischer & Whitney (2014);Experiment 1b;Orientation;1
2;143;145;87;4;9;2;78;Fischer & Whitney (2014);Experiment 1b;Orientation;1
2;94;89;88;4;9;-5;49;Fischer & Whitney (2014);Experiment 1b;Orientation;1
2;117;112;89;4;9;-5;-23;Fischer & Whitney (2014);Experiment 1b;Orientation;1
2;101;100;90;4;9;-1;16;Fischer & Whitney (2014);Experiment 1b;Orientation;1
2;52;68;91;4;9;16;49;Fischer & Whitney (2014);Experiment 1b;Orientation;1
2;131;132;92;4;9;1;-79;Fischer & Whitney (2014);Experiment 1b;Orientation;1
2;101;99;93;4;9;-2;30;Fischer & Whitney (2014);Experiment 1b;Orientation;1
2;119;107;94;4;9;-12;-18;Fischer & Whitney (2014);Experiment 1b;Orientation;1
2;17;16;95;4;9;-1;-78;Fischer & Whitney (2014);Experiment 1b;Orientation;1
2;167;167;96;4;9;0;30;Fischer & Whitney (2014);Experiment 1b;Orientation;1
2;48;59;97;4;9;11;-61;Fischer & Whitney (2014);Experiment 1b;Orientation;1
2;133;141;98;4;9;8;-85;Fischer & Whitney (2014);Experiment 1b;Orientation;1
2;145;135;99;4;9;-10;-12;Fischer & Whitney (2014);Experiment 1b;Orientation;1
2;99;97;100;4;9;-2;46;Fischer & Whitney (2014);Experiment 1b;Orientation;1
2;19;22;101;4;9;3;80;Fischer & Whitney (2014);Experiment 1b;Orientation;1
2;87;87;102;4;9;0;-68;Fischer & Whitney (2014);Experiment 1b;Orientation;1
2;0;178;103;4;9;-2;87;Fischer & Whitney (2014);Experiment 1b;Orientation;1
2;6;179;104;4;9;-7;-6;Fischer & Whitney (2014);Experiment 1b;Orientation;1
2;91;78;1;5;9;-13;-85;Fischer & Whitney (2014);Experiment 1b;Orientation;1
2;83;79;2;5;9;-4;8;Fischer & Whitney (2014);Experiment 1b;Orientation;1
2;30;33;3;5;9;3;53;Fischer & Whitney (2014);Experiment 1b;Orientation;1
2;38;46;4;5;9;8;-8;Fischer & Whitney (2014);Experiment 1b;Orientation;1
2;75;77;5;5;9;2;-37;Fischer & Whitney (2014);Experiment 1b;Orientation;1
2;29;18;6;5;9;-11;46;Fischer & Whitney (2014);Experiment 1b;Orientation;1
2;5;7;7;5;9;2;24;Fischer & Whitney (2014);Experiment 1b;Orientation;1
2;99;93;8;5;9;-6;86;Fischer & Whitney (2014);Experiment 1b;Orientation;1
2;163;151;9;5;9;-12;-64;Fischer & Whitney (2014);Experiment 1b;Orientation;1
2;147;141;10;5;9;-6;16;Fischer & Whitney (2014);Experiment 1b;Orientation;1
2;179;169;11;5;9;-10;-32;Fischer & Whitney (2014);Experiment 1b;Orientation;1
2;159;176;12;5;9;17;20;Fischer & Whitney (2014);Experiment 1b;Orientation;1
2;28;24;13;5;9;-4;-49;Fischer & Whitney (2014);Experiment 1b;Orientation;1
2;90;79;14;5;9;-11;-62;Fischer & Whitney (2014);Experiment 1b;Orientation;1
2;56;40;15;5;9;-16;34;Fischer & Whitney (2014);Experiment 1b;Orientation;1
2;62;40;16;5;9;-22;-6;Fischer & Whitney (2014);Experiment 1b;Orientation;1
2;162;143;17;5;9;-19;80;Fischer & Whitney (2014);Experiment 1b;Orientation;1
2;59;57;18;5;9;-2;-77;Fischer & Whitney (2014);Experiment 1b;Orientation;1
2;18;27;19;5;9;9;41;Fischer & Whitney (2014);Experiment 1b;Orientation;1
2;152;147;20;5;9;-5;46;Fischer & Whitney (2014);Experiment 1b;Orientation;1
2;103;37;21;5;9;-66;49;Fischer & Whitney (2014);Experiment 1b;Orientation;1
2;113;104;22;5;9;-9;-10;Fischer & Whitney (2014);Experiment 1b;Orientation;1
2;47;61;23;5;9;14;66;Fischer & Whitney (2014);Experiment 1b;Orientation;1
2;155;151;24;5;9;-4;72;Fischer & Whitney (2014);Experiment 1b;Orientation;1
2;152;148;25;5;9;-4;3;Fischer & Whitney (2014);Experiment 1b;Orientation;1
2;157;148;26;5;9;-9;-5;Fischer & Whitney (2014);Experiment 1b;Orientation;1
2;168;149;27;5;9;-19;-11;Fischer & Whitney (2014);Experiment 1b;Orientation;1
2;107;110;28;5;9;3;61;Fischer & Whitney (2014);Experiment 1b;Orientation;1
2;166;139;29;5;9;-27;-59;Fischer & Whitney (2014);Experiment 1b;Orientation;1
2;63;51;30;5;9;-12;-77;Fischer & Whitney (2014);Experiment 1b;Orientation;1
2;28;35;31;5;9;7;35;Fischer & Whitney (2014);Experiment 1b;Orientation;1
2;94;109;32;5;9;15;-66;Fischer & Whitney (2014);Experiment 1b;Orientation;1
2;29;40;33;5;9;11;65;Fischer & Whitney (2014);Experiment 1b;Orientation;1
2;44;29;34;5;9;-15;-15;Fischer & Whitney (2014);Experiment 1b;Orientation;1
2;24;26;35;5;9;2;20;Fischer & Whitney (2014);Experiment 1b;Orientation;1
2;121;124;36;5;9;3;83;Fischer & Whitney (2014);Experiment 1b;Orientation;1
2;171;177;37;5;9;6;-50;Fischer & Whitney (2014);Experiment 1b;Orientation;1
2;16;19;38;5;9;3;-25;Fischer & Whitney (2014);Experiment 1b;Orientation;1
2;166;149;39;5;9;-17;30;Fischer & Whitney (2014);Experiment 1b;Orientation;1
2;13;27;40;5;9;14;-27;Fischer & Whitney (2014);Experiment 1b;Orientation;1
2;32;22;41;5;9;-10;-19;Fischer & Whitney (2014);Experiment 1b;Orientation;1
2;128;119;42;5;9;-9;84;Fischer & Whitney (2014);Experiment 1b;Orientation;1
2;20;49;43;5;9;29;-72;Fischer & Whitney (2014);Experiment 1b;Orientation;1
2;125;123;44;5;9;-2;75;Fischer & Whitney (2014);Experiment 1b;Orientation;1
2;78;94;45;5;9;16;47;Fischer & Whitney (2014);Experiment 1b;Orientation;1
2;116;109;46;5;9;-7;-38;Fischer & Whitney (2014);Experiment 1b;Orientation;1
2;37;38;47;5;9;1;79;Fischer & Whitney (2014);Experiment 1b;Orientation;1
2;178;1;48;5;9;3;39;Fischer & Whitney (2014);Experiment 1b;Orientation;1
2;0;8;49;5;9;8;-2;Fischer & Whitney (2014);Experiment 1b;Orientation;1
2;29;24;50;5;9;-5;-29;Fischer & Whitney (2014);Experiment 1b;Orientation;1
2;103;111;51;5;9;8;-74;Fischer & Whitney (2014);Experiment 1b;Orientation;1
2;6;174;52;5;9;-12;-83;Fischer & Whitney (2014);Experiment 1b;Orientation;1
2;23;28;53;5;9;5;-17;Fischer & Whitney (2014);Experiment 1b;Orientation;1
2;179;166;54;5;9;-13;24;Fischer & Whitney (2014);Experiment 1b;Orientation;1
2;54;59;55;5;9;5;-55;Fischer & Whitney (2014);Experiment 1b;Orientation;1
2;166;153;56;5;9;-13;68;Fischer & Whitney (2014);Experiment 1b;Orientation;1
2;41;42;57;5;9;1;-55;Fischer & Whitney (2014);Experiment 1b;Orientation;1
2;143;129;58;5;9;-14;78;Fischer & Whitney (2014);Experiment 1b;Orientation;1
2;23;32;59;5;9;9;-60;Fischer & Whitney (2014);Experiment 1b;Orientation;1
2;20;42;60;5;9;22;3;Fischer & Whitney (2014);Experiment 1b;Orientation;1
2;173;173;61;5;9;0;27;Fischer & Whitney (2014);Experiment 1b;Orientation;1
2;106;113;62;5;9;7;67;Fischer & Whitney (2014);Experiment 1b;Orientation;1
2;36;53;63;5;9;17;70;Fischer & Whitney (2014);Experiment 1b;Orientation;1
2;13;168;64;5;9;-25;23;Fischer & Whitney (2014);Experiment 1b;Orientation;1
2;4;1;65;5;9;-3;9;Fischer & Whitney (2014);Experiment 1b;Orientation;1
2;88;86;66;5;9;-2;-84;Fischer & Whitney (2014);Experiment 1b;Orientation;1
2;56;76;67;5;9;20;32;Fischer & Whitney (2014);Experiment 1b;Orientation;1
2;13;48;68;5;9;35;43;Fischer & Whitney (2014);Experiment 1b;Orientation;1
2;169;153;69;5;9;-16;24;Fischer & Whitney (2014);Experiment 1b;Orientation;1
2;11;18;70;5;9;7;-22;Fischer & Whitney (2014);Experiment 1b;Orientation;1
2;138;141;71;5;9;3;53;Fischer & Whitney (2014);Experiment 1b;Orientation;1
2;172;163;72;5;9;-9;-34;Fischer & Whitney (2014);Experiment 1b;Orientation;1
2;177;167;73;5;9;-10;-5;Fischer & Whitney (2014);Experiment 1b;Orientation;1
2;28;16;74;5;9;-12;-31;Fischer & Whitney (2014);Experiment 1b;Orientation;1
2;177;5;75;5;9;8;31;Fischer & Whitney (2014);Experiment 1b;Orientation;1
2;80;67;76;5;9;-13;-83;Fischer & Whitney (2014);Experiment 1b;Orientation;1
2;168;175;77;5;9;7;-88;Fischer & Whitney (2014);Experiment 1b;Orientation;1
2;64;68;78;5;9;4;-76;Fischer & Whitney (2014);Experiment 1b;Orientation;1
2;153;163;79;5;9;10;-89;Fischer & Whitney (2014);Experiment 1b;Orientation;1
2;69;75;80;5;9;6;84;Fischer & Whitney (2014);Experiment 1b;Orientation;1
2;9;174;81;5;9;-15;60;Fischer & Whitney (2014);Experiment 1b;Orientation;1
2;66;58;82;5;9;-8;-57;Fischer & Whitney (2014);Experiment 1b;Orientation;1
2;148;122;83;5;9;-26;-82;Fischer & Whitney (2014);Experiment 1b;Orientation;1
2;29;49;84;5;9;20;-61;Fischer & Whitney (2014);Experiment 1b;Orientation;1
2;148;145;85;5;9;-3;61;Fischer & Whitney (2014);Experiment 1b;Orientation;1
