obs;block;trial;theta;delta;rt;resp;error;cond;study;experiment;stimulus;expnum
2;1;1;174;-80;3.23833885564295;162.247800621157;-11.7521993788425;1;Fritsche & deLange (2019);Experiment 1;Orientation;1
2;1;2;176;-80;2.81714356763587;162.730005023476;-13.2699949765237;1;Fritsche & deLange (2019);Experiment 1;Orientation;1
2;1;3;64;-50;2.86707572518981;55.426849414194;-8.57315058580598;1;Fritsche & deLange (2019);Experiment 1;Orientation;1
2;1;4;32;90;3.05049782895367;45.2414548660619;13.2414548660619;1;Fritsche & deLange (2019);Experiment 1;Orientation;1
2;1;5;109;70;2.81514275065274;116.476508544016;7.47650854401608;1;Fritsche & deLange (2019);Experiment 1;Orientation;1
2;1;6;131;-40;2.96783619986127;120.67166201919;-10.3283379808096;1;Fritsche & deLange (2019);Experiment 1;Orientation;1
2;1;7;50;-60;2.73417930874302;32.3037611876473;-17.6962388123527;1;Fritsche & deLange (2019);Experiment 1;Orientation;1
2;1;8;24;30;1.46757477111419;47.2722591999055;23.2722591999055;1;Fritsche & deLange (2019);Experiment 1;Orientation;1
2;1;9;148;-90;1.43420397072578;140.793390462172;-7.2066095378284;1;Fritsche & deLange (2019);Experiment 1;Orientation;1
2;1;10;174;-90;2.58420395606345;155.466740558871;-18.5332594411294;1;Fritsche & deLange (2019);Experiment 1;Orientation;1
2;1;11;25;0;2.25091969254936;25.7239159886642;0.723915988664245;1;Fritsche & deLange (2019);Experiment 1;Orientation;1
2;1;12;105;40;2.4509351172851;109.72812334606;4.72812334606027;1;Fritsche & deLange (2019);Experiment 1;Orientation;1
2;1;13;179;-30;1.96791713573793;17.6539422663519;18.6539422663519;1;Fritsche & deLange (2019);Experiment 1;Orientation;1
2;1;14;14;80;1.45086209904844;16.1607968438714;2.16079684387135;1;Fritsche & deLange (2019);Experiment 1;Orientation;1
2;1;15;159;50;4.31756276269334;154.254690635778;-4.74530936422155;1;Fritsche & deLange (2019);Experiment 1;Orientation;1
2;1;16;107;30;2.23427212108027;111.061737327671;4.06173732767132;1;Fritsche & deLange (2019);Experiment 1;Orientation;1
2;1;17;121;-80;2.48425108068454;102.76572388715;-18.2342761128502;1;Fritsche & deLange (2019);Experiment 1;Orientation;1
2;1;18;175;60;1.38428324976303;18.247228653075;23.247228653075;1;Fritsche & deLange (2019);Experiment 1;Orientation;1
2;1;19;176;50;3.11762739409642;172.00205731856;-3.99794268143995;1;Fritsche & deLange (2019);Experiment 1;Orientation;1
2;1;20;9;-20;3.85092989750751;6.70363820341728;-2.29636179658272;1;Fritsche & deLange (2019);Experiment 1;Orientation;1
2;1;21;49;-50;2.70092903243221;59.2908873768712;10.2908873768712;1;Fritsche & deLange (2019);Experiment 1;Orientation;1
2;1;22;172;50;3.10096750629828;167.162717559756;-4.83728244024422;1;Fritsche & deLange (2019);Experiment 1;Orientation;1
2;1;23;58;-10;2.21760284941229;58.9116920788645;0.911692078864498;1;Fritsche & deLange (2019);Experiment 1;Orientation;1
2;1;24;153;-10;1.61768706964313;138.26475501745;-14.7352449825498;1;Fritsche & deLange (2019);Experiment 1;Orientation;1
2;1;25;90;80;2.75095942737244;76.5807807365946;-13.4192192634054;1;Fritsche & deLange (2019);Experiment 1;Orientation;1
2;1;26;142;-40;2.6676022189331;123.195585820508;-18.8044141794925;1;Fritsche & deLange (2019);Experiment 1;Orientation;1
2;1;27;108;-40;2.4675976442968;104.257099642151;-3.74290035784927;1;Fritsche & deLange (2019);Experiment 1;Orientation;1
2;1;28;137;-60;4.13424065579193;113.663726765082;-23.336273234918;1;Fritsche & deLange (2019);Experiment 1;Orientation;1
2;1;29;62;-40;2.80090008905881;53.5393402210638;-8.46065977893621;1;Fritsche & deLange (2019);Experiment 1;Orientation;1
2;1;30;85;70;2.98427351399823;73.0144059507426;-11.9855940492574;1;Fritsche & deLange (2019);Experiment 1;Orientation;1
2;1;31;123;30;2.00090788940042;147.890295576468;24.8902955764678;1;Fritsche & deLange (2019);Experiment 1;Orientation;1
2;1;32;10;30;3.25094931038802;19.2032826931008;9.2032826931008;1;Fritsche & deLange (2019);Experiment 1;Orientation;1
2;1;33;72;40;3.18430741322754;61.645665060715;-10.354334939285;1;Fritsche & deLange (2019);Experiment 1;Orientation;1
2;1;34;97;-10;3.6176034945529;82.671144011143;-14.328855988857;1;Fritsche & deLange (2019);Experiment 1;Orientation;1
2;1;35;120;-60;3.40092847526466;114.203149325953;-5.79685067404672;1;Fritsche & deLange (2019);Experiment 1;Orientation;1
2;1;36;58;20;2.6843014016863;76.2159541235323;18.2159541235323;1;Fritsche & deLange (2019);Experiment 1;Orientation;1
2;2;1;58;-60;2.41761798090238;170.092577168649;-67.9074228313509;1;Fritsche & deLange (2019);Experiment 1;Orientation;1
2;2;2;31;20;2.66758755663705;34.9151448624809;3.91514486248093;1;Fritsche & deLange (2019);Experiment 1;Orientation;1
2;2;3;118;10;1.5842675904305;113.026918993766;-4.97308100623358;1;Fritsche & deLange (2019);Experiment 1;Orientation;1
2;2;4;77;50;2.58427286885717;67.9569729310936;-9.0430270689064;1;Fritsche & deLange (2019);Experiment 1;Orientation;1
2;2;5;4;-70;2.26759189667655;19.907133786527;15.907133786527;1;Fritsche & deLange (2019);Experiment 1;Orientation;1
2;2;6;43;-20;4.1343113280609;46.4842113342218;3.48421133422185;1;Fritsche & deLange (2019);Experiment 1;Orientation;1
2;2;7;98;-20;3.28428492126523;73.0383692777832;-24.9616307222168;1;Fritsche & deLange (2019);Experiment 1;Orientation;1
2;2;8;27;10;3.68426679866661;33.1752848980345;6.17528489803454;1;Fritsche & deLange (2019);Experiment 1;Orientation;1
2;2;9;29;-40;2.9176298573625;27.1015037638049;-1.89849623619507;1;Fritsche & deLange (2019);Experiment 1;Orientation;1
2;2;10;174;20;2.53426182814792;164.982984070821;-9.01701592917891;1;Fritsche & deLange (2019);Experiment 1;Orientation;1
2;2;11;145;-60;4.65112766256334;163.323699672802;18.3236996728024;1;Fritsche & deLange (2019);Experiment 1;Orientation;1
2;2;12;10;-70;2.2176072481011;117.454712659947;-72.5452873400533;1;Fritsche & deLange (2019);Experiment 1;Orientation;1
2;2;13;165;60;2.78429943693845;146.552177556847;-18.4478224431529;1;Fritsche & deLange (2019);Experiment 1;Orientation;1
2;2;14;0;-30;2.23427593327688;157.115014051278;-22.8849859487222;1;Fritsche & deLange (2019);Experiment 1;Orientation;1
2;2;15;152;-10;2.81758930145043;151.335399909089;-0.664600090910653;1;Fritsche & deLange (2019);Experiment 1;Orientation;1
2;2;16;62;30;1.73431126941159;61.9769254213571;-0.0230745786428628;1;Fritsche & deLange (2019);Experiment 1;Orientation;1
2;2;17;36;-20;3.98427967216276;30.0417976213836;-5.95820237861641;1;Fritsche & deLange (2019);Experiment 1;Orientation;1
2;2;18;59;-60;2.86752908339804;59.3038590779478;0.303859077947848;1;Fritsche & deLange (2019);Experiment 1;Orientation;1
2;2;19;148;-50;1.86758773258407;130.133174564361;-17.8668254356386;1;Fritsche & deLange (2019);Experiment 1;Orientation;1
2;2;20;179;-60;3.15090728824634;168.437784434389;-10.5622155656112;1;Fritsche & deLange (2019);Experiment 1;Orientation;1
2;2;21;164;60;2.56764171916029;160.169887855025;-3.83011214497486;1;Fritsche & deLange (2019);Experiment 1;Orientation;1
2;2;22;121;-40;2.91762105998441;105.930235668993;-15.0697643310066;1;Fritsche & deLange (2019);Experiment 1;Orientation;1
2;2;23;174;-20;2.40093932536411;157.827048322303;-16.1729516776965;1;Fritsche & deLange (2019);Experiment 1;Orientation;1
2;2;24;120;-10;3.51759871464446;123.503675361476;3.50367536147618;1;Fritsche & deLange (2019);Experiment 1;Orientation;1
2;2;25;95;60;2.43432918673807;99.1253591193685;4.12535911936847;1;Fritsche & deLange (2019);Experiment 1;Orientation;1
2;2;26;55;10;3.81759282040093;56.9338750602896;1.93387506028964;1;Fritsche & deLange (2019);Experiment 1;Orientation;1
2;2;27;8;-70;3.23422989366645;19.0332190901587;11.0332190901587;1;Fritsche & deLange (2019);Experiment 1;Orientation;1
2;2;28;148;60;2.23428473065496;130.677492690823;-17.3225073091771;1;Fritsche & deLange (2019);Experiment 1;Orientation;1
2;2;29;56;-60;1.80091416486357;51.3655988326962;-4.63440116730384;1;Fritsche & deLange (2019);Experiment 1;Orientation;1
2;2;30;8;-70;2.43427933492967;35.320008455035;27.320008455035;1;Fritsche & deLange (2019);Experiment 1;Orientation;1
2;2;31;44;80;1.35097285803613;33.1248704510969;-10.8751295489031;1;Fritsche & deLange (2019);Experiment 1;Orientation;1
2;2;32;144;50;2.65091095382058;148.97513331404;4.97513331403971;1;Fritsche & deLange (2019);Experiment 1;Orientation;1
2;2;33;28;-50;1.60098730039863;17.8950418044498;-10.1049581955502;1;Fritsche & deLange (2019);Experiment 1;Orientation;1
2;2;34;110;0;2.38430113776485;104.415324910465;-5.58467508953458;1;Fritsche & deLange (2019);Experiment 1;Orientation;1
2;2;35;25;-70;2.50096932442284;37.9073070928858;12.9073070928858;1;Fritsche & deLange (2019);Experiment 1;Orientation;1
2;2;36;138;40;2.70091671610271;121.154807641589;-16.8451923584107;1;Fritsche & deLange (2019);Experiment 1;Orientation;1
2;3;1;136;-90;1.81761070840275;116.025450513509;-19.9745494864915;1;Fritsche & deLange (2019);Experiment 1;Orientation;1
2;3;2;42;-30;2.51757848067518;36.4107092089936;-5.58929079100636;1;Fritsche & deLange (2019);Experiment 1;Orientation;1
2;3;3;28;-60;2.48426046455461;29.0904363750066;1.09043637500658;1;Fritsche & deLange (2019);Experiment 1;Orientation;1
2;3;4;68;-40;2.3176290362735;57.7172565720468;-10.2827434279532;1;Fritsche & deLange (2019);Experiment 1;Orientation;1
2;3;5;24;10;2.0176126438264;39.0389356935896;15.0389356935896;1;Fritsche & deLange (2019);Experiment 1;Orientation;1
2;3;6;151;80;3.06763688060255;135.977538113229;-15.0224618867709;1;Fritsche & deLange (2019);Experiment 1;Orientation;1
2;3;7;101;-60;3.21757968298334;103.750337085748;2.75033708574819;1;Fritsche & deLange (2019);Experiment 1;Orientation;1
2;3;8;40;40;2.73452973763006;36.9348416327933;-3.06515836720667;1;Fritsche & deLange (2019);Experiment 1;Orientation;1
2;3;9;22;10;2.35090013304534;27.8848843645146;5.88488436451458;1;Fritsche & deLange (2019);Experiment 1;Orientation;1
2;3;10;75;-80;3.05095558585117;15.8958598804483;-59.1041401195517;1;Fritsche & deLange (2019);Experiment 1;Orientation;1
2;3;11;82;60;4.15092752221562;77.9526655216559;-4.04733447834408;1;Fritsche & deLange (2019);Experiment 1;Orientation;1
2;3;12;155;10;1.50093296192745;151.886430221084;-3.11356977891609;1;Fritsche & deLange (2019);Experiment 1;Orientation;1
2;3;13;165;40;4.4509351172851;155.303984212893;-9.69601578710746;1;Fritsche & deLange (2019);Experiment 1;Orientation;1
2;3;14;180;-90;3.66759547427728;163.704217977358;-16.2957820226418;1;Fritsche & deLange (2019);Experiment 1;Orientation;1
2;3;15;33;-10;2.90096733035034;24.3781079763924;-8.62189202360756;1;Fritsche & deLange (2019);Experiment 1;Orientation;1
2;3;16;84;40;2.55097596644327;79.0489587623473;-4.95104123765267;1;Fritsche & deLange (2019);Experiment 1;Orientation;1
2;3;17;175;0;2.61760847973392;158.092480757396;-16.9075192426041;1;Fritsche & deLange (2019);Experiment 1;Orientation;1
2;3;18;48;20;3.25094784415842;61.7937213571907;13.7937213571907;1;Fritsche & deLange (2019);Experiment 1;Orientation;1
2;3;19;88;-10;2.20090513288915;74.4071311161515;-13.5928688838485;1;Fritsche & deLange (2019);Experiment 1;Orientation;1
2;3;20;164;70;3.35089749383269;161.945987751794;-2.05401224820582;1;Fritsche & deLange (2019);Experiment 1;Orientation;1
2;3;21;42;50;3.36763157285122;67.7470642078913;25.7470642078913;1;Fritsche & deLange (2019);Experiment 1;Orientation;1
2;3;22;4;-70;2.03426461398431;22.522810886398;18.522810886398;1;Fritsche & deLange (2019);Experiment 1;Orientation;1
2;3;23;102;-80;2.46760380246133;113.732365293337;11.7323652933373;1;Fritsche & deLange (2019);Experiment 1;Orientation;1
2;3;24;17;-50;2.8176218517483;16.0151160053325;-0.98488399466747;1;Fritsche & deLange (2019);Experiment 1;Orientation;1
2;3;25;129;80;5.13377146230323;135.763262603775;6.7632626037749;1;Fritsche & deLange (2019);Experiment 1;Orientation;1
2;3;26;91;-90;3.01761088435023;68.3253674083594;-22.6746325916406;1;Fritsche & deLange (2019);Experiment 1;Orientation;1
2;3;27;81;60;1.86776543961787;74.02440617388;-6.97559382612005;1;Fritsche & deLange (2019);Experiment 1;Orientation;1
2;3;28;104;30;2.35096640662596;98.9276678017152;-5.07233219828484;1;Fritsche & deLange (2019);Experiment 1;Orientation;1
2;3;29;73;50;2.93429971552223;73.8770848300952;0.877084830095242;1;Fritsche & deLange (2019);Experiment 1;Orientation;1
2;3;30;169;-70;2.21766355131967;161.246383432588;-7.75361656741245;1;Fritsche & deLange (2019);Experiment 1;Orientation;1
2;3;31;132;30;1.58426231200383;138.596176886626;6.59617688662601;1;Fritsche & deLange (2019);Experiment 1;Orientation;1
2;3;32;146;30;3.06755741095503;146.425116314188;0.425116314187619;1;Fritsche & deLange (2019);Experiment 1;Orientation;1
2;3;33;66;90;2.83423833914912;61.1801959859333;-4.8198040140667;1;Fritsche & deLange (2019);Experiment 1;Orientation;1
2;3;34;49;0;3.86755107684303;51.3861452890743;2.38614528907429;1;Fritsche & deLange (2019);Experiment 1;Orientation;1
2;3;35;153;0;2.75092863654982;150.222209436576;-2.77779056342365;1;Fritsche & deLange (2019);Experiment 1;Orientation;1
2;3;36;48;40;3.61761991632511;75.6530404164946;27.6530404164946;1;Fritsche & deLange (2019);Experiment 1;Orientation;1
2;4;1;81;-30;2.1842848332908;71.8148158623897;-9.18518413761031;1;Fritsche & deLange (2019);Experiment 1;Orientation;1
2;4;2;31;-10;3.35091626157191;19.29597706488;-11.70402293512;1;Fritsche & deLange (2019);Experiment 1;Orientation;1
2;4;3;27;-20;2.75093450146869;23.3823635521653;-3.61763644783473;1;Fritsche & deLange (2019);Experiment 1;Orientation;1
2;4;4;7;70;2.46761494580642;28.2804342938044;21.2804342938044;1;Fritsche & deLange (2019);Experiment 1;Orientation;1
2;4;5;157;30;2.98429756016458;162.305278731221;5.30527873122136;1;Fritsche & deLange (2019);Experiment 1;Orientation;1
2;4;6;79;40;1.78431409923496;78.8834873694938;-0.116512630506236;1;Fritsche & deLange (2019);Experiment 1;Orientation;1
2;4;7;53;50;3.26757664788829;78.5783623617956;25.5783623617956;1;Fritsche & deLange (2019);Experiment 1;Orientation;1
2;4;8;106;10;2.45092602666136;106.601104493588;0.601104493588323;1;Fritsche & deLange (2019);Experiment 1;Orientation;1
2;4;9;39;10;2.36765063383655;31.8351669856903;-7.16483301430966;1;Fritsche & deLange (2019);Experiment 1;Orientation;1
2;4;10;106;-30;2.81762830315847;105.071737728154;-0.92826227184608;1;Fritsche & deLange (2019);Experiment 1;Orientation;1
2;4;11;30;-10;2.55092875384844;20.1589270835179;-9.84107291648212;1;Fritsche & deLange (2019);Experiment 1;Orientation;1
2;4;12;110;50;2.6176442557371;108.930523246123;-1.06947675387723;1;Fritsche & deLange (2019);Experiment 1;Orientation;1
2;4;13;46;90;3.55093608499692;33.6756169048493;-12.3243830951507;1;Fritsche & deLange (2019);Experiment 1;Orientation;1
2;4;14;6;10;2.8009467151619;21.2225326117142;15.2225326117142;1;Fritsche & deLange (2019);Experiment 1;Orientation;1
2;4;15;101;40;3.21753980153699;111.488204266697;10.4882042666966;1;Fritsche & deLange (2019);Experiment 1;Orientation;1
2;4;16;14;40;1.90094621664321;19.3329676456549;5.3329676456549;1;Fritsche & deLange (2019);Experiment 1;Orientation;1
2;4;17;21;30;2.06760227758241;26.4994902916781;5.49949029167807;1;Fritsche & deLange (2019);Experiment 1;Orientation;1
2;4;18;89;-20;2.28422861804665;79.3740803189424;-9.62591968105764;1;Fritsche & deLange (2019);Experiment 1;Orientation;1
2;4;19;79;50;1.93431085886732;81.0962828612662;2.09628286126623;1;Fritsche & deLange (2019);Experiment 1;Orientation;1
2;4;20;106;-30;2.35090717094818;105.563600832834;-0.436399167166456;1;Fritsche & deLange (2019);Experiment 1;Orientation;1
2;4;21;5;-60;1.71762000429908;15.2553151606135;10.2553151606135;1;Fritsche & deLange (2019);Experiment 1;Orientation;1
2;4;22;91;-50;2.5342451131296;108.89497890469;17.8949789046901;1;Fritsche & deLange (2019);Experiment 1;Orientation;1
2;4;23;139;-80;3.31765073647239;138.261908390185;-0.738091609815456;1;Fritsche & deLange (2019);Experiment 1;Orientation;1
2;4;24;133;-10;2.28425588991786;127.851693643115;-5.14830635688509;1;Fritsche & deLange (2019);Experiment 1;Orientation;1
2;4;25;145;0;2.36765063383655;133.415493046645;-11.5845069533546;1;Fritsche & deLange (2019);Experiment 1;Orientation;1
2;4;26;173;30;1.73424001065041;153.205676185055;-19.7943238149455;1;Fritsche & deLange (2019);Experiment 1;Orientation;1
2;4;27;162;20;3.65090684837787;165.155821286046;3.15582128604564;1;Fritsche & deLange (2019);Experiment 1;Orientation;1
2;4;28;157;70;1.4842575320954;144.903177193568;-12.0968228064315;1;Fritsche & deLange (2019);Experiment 1;Orientation;1
2;4;29;42;20;4.11760833311064;52.4278334448748;10.4278334448748;1;Fritsche & deLange (2019);Experiment 1;Orientation;1
2;4;30;158;70;1.86758304064915;157.891075930921;-0.10892406907908;1;Fritsche & deLange (2019);Experiment 1;Orientation;1
2;4;31;77;-20;3.18427017099475;65.2068391086174;-11.7931608913826;1;Fritsche & deLange (2019);Experiment 1;Orientation;1
2;4;32;120;20;3.11761859671833;122.325349219942;2.32534921994164;1;Fritsche & deLange (2019);Experiment 1;Orientation;1
2;4;33;154;50;1.53420493843714;152.269738585827;-1.73026141417304;1;Fritsche & deLange (2019);Experiment 1;Orientation;1
2;4;34;93;70;2.36763685127789;103.487598370673;10.4875983706731;1;Fritsche & deLange (2019);Experiment 1;Orientation;1
2;4;35;68;-20;2.10091677475202;66.1458317851348;-1.85416821486521;1;Fritsche & deLange (2019);Experiment 1;Orientation;1
2;4;36;102;30;1.93424810423858;105.183051859334;3.1830518593339;1;Fritsche & deLange (2019);Experiment 1;Orientation;1
2;5;1;32;70;3.20091832895559;19.0474012229559;-12.9525987770441;1;Fritsche & deLange (2019);Experiment 1;Orientation;1
2;5;2;49;60;1.88426228267917;48.8633749641374;-0.136625035862593;1;Fritsche & deLange (2019);Experiment 1;Orientation;1
2;5;3;131;-80;1.88428456936981;123.348489391644;-7.65151060835609;1;Fritsche & deLange (2019);Experiment 1;Orientation;1
2;5;4;115;10;2.93426892469961;120.718263240127;5.71826324012699;1;Fritsche & deLange (2019);Experiment 1;Orientation;1
2;5;5;20;-50;2.36762101599743;20.138264589768;0.138264589767985;1;Fritsche & deLange (2019);Experiment 1;Orientation;1
2;5;6;66;40;4.26762063477781;81.8001015212458;15.8001015212458;1;Fritsche & deLange (2019);Experiment 1;Orientation;1
2;5;7;80;10;2.51755648723065;69.4082347783095;-10.5917652216905;1;Fritsche & deLange (2019);Experiment 1;Orientation;1
2;5;8;160;0;3.10114521333162;160.415880491102;0.415880491102314;1;Fritsche & deLange (2019);Experiment 1;Orientation;1
2;5;9;138;70;3.2675913101848;132.798028908419;-5.20197109158084;1;Fritsche & deLange (2019);Experiment 1;Orientation;1
2;5;10;163;-40;3.2676411619932;158.111998040039;-4.88800195996058;1;Fritsche & deLange (2019);Experiment 1;Orientation;1
2;5;11;1;70;3.16761996031164;170.540233291454;-10.4597667085465;1;Fritsche & deLange (2019);Experiment 1;Orientation;1
2;5;12;2;-30;2.31758915482715;24.151502645165;22.151502645165;1;Fritsche & deLange (2019);Experiment 1;Orientation;1
2;5;13;180;-20;2.58428401220226;10.9353637488084;10.9353637488084;1;Fritsche & deLange (2019);Experiment 1;Orientation;1
2;5;14;109;50;2.35093385632808;108.977633026189;-0.0223669738113159;1;Fritsche & deLange (2019);Experiment 1;Orientation;1
2;5;15;167;-10;3.13426792766313;151.622883317872;-15.3771166821277;1;Fritsche & deLange (2019);Experiment 1;Orientation;1
2;5;16;19;90;2.2675660910345;18.0508741600644;-0.949125839935647;1;Fritsche & deLange (2019);Experiment 1;Orientation;1
2;5;17;86;70;3.0176126438264;94.7333209409184;8.73332094091842;1;Fritsche & deLange (2019);Experiment 1;Orientation;1
2;5;18;94;80;2.73428986245926;96.292448577137;2.29244857713697;1;Fritsche & deLange (2019);Experiment 1;Orientation;1
2;5;19;72;70;2.25093523458327;75.2989336802892;3.29893368028917;1;Fritsche & deLange (2019);Experiment 1;Orientation;1
2;5;20;156;30;2.00098823878579;154.600588997933;-1.39941100206732;1;Fritsche & deLange (2019);Experiment 1;Orientation;1
2;5;21;60;20;2.25091060192517;77.0191392698126;17.0191392698126;1;Fritsche & deLange (2019);Experiment 1;Orientation;1
2;5;22;11;20;2.41759628070304;20.6782294612751;9.67822946127511;1;Fritsche & deLange (2019);Experiment 1;Orientation;1
2;5;23;27;90;3.28425559667266;18.0340910126048;-8.96590898739517;1;Fritsche & deLange (2019);Experiment 1;Orientation;1
2;5;24;22;0;1.98425943819348;27.9320563708707;5.93205637087066;1;Fritsche & deLange (2019);Experiment 1;Orientation;1
2;5;25;131;-50;2.96756905281836;112.408878855606;-18.5911211443942;1;Fritsche & deLange (2019);Experiment 1;Orientation;1
2;5;26;136;-40;2.01760619241577;144.833144725707;8.83314472570743;1;Fritsche & deLange (2019);Experiment 1;Orientation;1
2;5;27;51;-20;3.08424222465783;41.388678913038;-9.61132108696202;1;Fritsche & deLange (2019);Experiment 1;Orientation;1
2;5;28;55;90;2.93431525755568;46.9998144945867;-8.00018550541326;1;Fritsche & deLange (2019);Experiment 1;Orientation;1
2;5;29;168;20;2.31762844978221;164.117133706893;-3.88286629310716;1;Fritsche & deLange (2019);Experiment 1;Orientation;1
2;5;30;170;80;2.50097049740634;171.776454604817;1.77645460481727;1;Fritsche & deLange (2019);Experiment 1;Orientation;1
2;5;31;51;-80;2.86754609166201;53.8669055442862;2.8669055442862;1;Fritsche & deLange (2019);Experiment 1;Orientation;1
2;5;32;74;-40;3.1675956209001;73.033021631976;-0.966978368024044;1;Fritsche & deLange (2019);Experiment 1;Orientation;1
2;5;33;134;50;1.90092422319958;129.11281941303;-4.88718058697023;1;Fritsche & deLange (2019);Experiment 1;Orientation;1
2;5;34;52;-80;1.70091876882452;58.1517417600234;6.15174176002345;1;Fritsche & deLange (2019);Experiment 1;Orientation;1
2;5;35;32;-10;2.50095231615887;33.2304855239542;1.23048552395422;1;Fritsche & deLange (2019);Experiment 1;Orientation;1
2;5;36;54;20;2.68429319080042;46.2002863753184;-7.79971362468157;1;Fritsche & deLange (2019);Experiment 1;Orientation;1
2;6;1;153;10;3.35088195179833;156.103510404779;3.1035104047786;1;Fritsche & deLange (2019);Experiment 1;Orientation;1
2;6;2;57;90;3.11755584209004;63.8809811050638;6.88098110506383;1;Fritsche & deLange (2019);Experiment 1;Orientation;1
2;6;3;86;40;5.98445884542616;93.1757143174514;7.17571431745144;1;Fritsche & deLange (2019);Experiment 1;Orientation;1
2;6;4;143;70;2.05094063030811;131.667392058196;-11.3326079418038;1;Fritsche & deLange (2019);Experiment 1;Orientation;1
2;6;5;121;-80;2.21758701413182;114.168565590131;-6.83143440986929;1;Fritsche & deLange (2019);Experiment 1;Orientation;1
2;6;6;51;-50;4.28429665110161;34.7170116520515;-16.2829883479485;1;Fritsche & deLange (2019);Experiment 1;Orientation;1
2;6;7;41;30;1.63427687166404;41.5590316179688;0.559031617968756;1;Fritsche & deLange (2019);Experiment 1;Orientation;1
2;6;8;159;60;1.55094019044009;144.119786115147;-14.8802138848525;1;Fritsche & deLange (2019);Experiment 1;Orientation;1
2;6;9;168;60;2.30095624565456;149.695449805973;-18.3045501940271;1;Fritsche & deLange (2019);Experiment 1;Orientation;1
2;6;10;179;-70;2.06756386236611;9.3962742327578;10.3962742327578;1;Fritsche & deLange (2019);Experiment 1;Orientation;1
2;6;11;160;-30;2.88435465514704;125.104754864555;-34.895245135445;1;Fritsche & deLange (2019);Experiment 1;Orientation;1
2;6;12;14;60;2.46759559157545;20.7303081839316;6.73030818393156;1;Fritsche & deLange (2019);Experiment 1;Orientation;1
2;6;13;89;0;2.30091812368391;95.8871629282847;6.88716292828467;1;Fritsche & deLange (2019);Experiment 1;Orientation;1
2;6;14;50;80;2.50096521898013;23.7885784809851;-26.2114215190149;1;Fritsche & deLange (2019);Experiment 1;Orientation;1
2;6;15;105;-10;2.20097345919021;97.6614783412018;-7.3385216587982;1;Fritsche & deLange (2019);Experiment 1;Orientation;1
2;6;16;122;-80;3.33434376106106;108.770046073057;-13.229953926943;1;Fritsche & deLange (2019);Experiment 1;Orientation;1
2;6;17;166;60;2.70098210994547;158.72831227369;-7.27168772630978;1;Fritsche & deLange (2019);Experiment 1;Orientation;1
2;6;18;32;-30;2.66756966863522;157.071765146365;-54.9282348536345;1;Fritsche & deLange (2019);Experiment 1;Orientation;1
2;6;19;151;30;2.90113946571182;131.93087200002;-19.0691279999796;1;Fritsche & deLange (2019);Experiment 1;Orientation;1
2;6;20;107;-70;2.85093458944266;112.119073512083;5.11907351208265;1;Fritsche & deLange (2019);Experiment 1;Orientation;1
2;6;21;9;80;1.4509474336146;11.956915166535;2.95691516653503;1;Fritsche & deLange (2019);Experiment 1;Orientation;1
2;6;22;27;-40;1.66760427165445;19.3260809162459;-7.67391908375407;1;Fritsche & deLange (2019);Experiment 1;Orientation;1
2;6;23;38;90;1.76751609260373;34.7541331504554;-3.2458668495446;1;Fritsche & deLange (2019);Experiment 1;Orientation;1
2;6;24;53;-30;2.68428380693058;45.7448890203717;-7.25511097962829;1;Fritsche & deLange (2019);Experiment 1;Orientation;1
2;6;25;154;-10;2.50092181858236;153.156846240433;-0.843153759567315;1;Fritsche & deLange (2019);Experiment 1;Orientation;1
2;6;26;0;-10;2.16761790759119;162.654111634663;-17.3458883653374;1;Fritsche & deLange (2019);Experiment 1;Orientation;1
2;6;27;129;-90;2.38425832385929;154.310607599202;25.3106075992018;1;Fritsche & deLange (2019);Experiment 1;Orientation;1
2;6;28;42;-70;1.65090127670464;68.4742546447105;26.4742546447105;1;Fritsche & deLange (2019);Experiment 1;Orientation;1
2;6;29;60;-30;1.95096752096106;71.5485768378837;11.5485768378837;1;Fritsche & deLange (2019);Experiment 1;Orientation;1
2;6;30;71;-80;4.70094662718748;107.509822259364;36.5098222593642;1;Fritsche & deLange (2019);Experiment 1;Orientation;1
2;6;31;85;-40;1.46758620770561;88.0192646838836;3.01926468388359;1;Fritsche & deLange (2019);Experiment 1;Orientation;1
2;6;32;71;-30;4.78429474500354;87.3260631381184;16.3260631381184;1;Fritsche & deLange (2019);Experiment 1;Orientation;1
2;6;33;37;90;3.43430191486641;40.5714168401815;3.57141684018153;1;Fritsche & deLange (2019);Experiment 1;Orientation;1
2;6;34;130;20;2.15094335749563;115.330662780152;-14.6693372198481;1;Fritsche & deLange (2019);Experiment 1;Orientation;1
2;6;35;15;0;3.43429165125872;15.6578898794265;0.657889879426506;1;Fritsche & deLange (2019);Experiment 1;Orientation;1
2;6;36;32;-60;1.96756377439124;25.2221382750866;-6.77786172491344;1;Fritsche & deLange (2019);Experiment 1;Orientation;1
2;7;1;33;0;1.36757380340259;39.709964750921;6.70996475092096;1;Fritsche & deLange (2019);Experiment 1;Orientation;1
2;7;2;107;-40;2.20086173249092;105.425491427305;-1.57450857269541;1;Fritsche & deLange (2019);Experiment 1;Orientation;1
2;7;3;43;-80;2.23428678337677;41.9859663715734;-1.01403362842657;1;Fritsche & deLange (2019);Experiment 1;Orientation;1
2;7;4;60;-30;2.11758076799288;61.0663890004656;1.06638900046558;1;Fritsche & deLange (2019);Experiment 1;Orientation;1
2;7;5;152;-20;2.2175961047551;142.147409899749;-9.85259010025075;1;Fritsche & deLange (2019);Experiment 1;Orientation;1
2;7;6;58;20;2.11758252746858;101.001314635764;43.001314635764;1;Fritsche & deLange (2019);Experiment 1;Orientation;1
2;7;7;28;50;4.35090717094772;23.7625524323424;-4.23744756765763;1;Fritsche & deLange (2019);Experiment 1;Orientation;1
2;7;8;169;20;2.15095362110333;152.065892783098;-16.9341072169019;1;Fritsche & deLange (2019);Experiment 1;Orientation;1
2;7;9;75;-10;2.10090768412829;67.8482719578525;-7.1517280421475;1;Fritsche & deLange (2019);Experiment 1;Orientation;1
2;7;10;131;-60;1.81764501817634;108.353806531029;-22.646193468971;1;Fritsche & deLange (2019);Experiment 1;Orientation;1
2;7;11;143;20;3.26757400867518;127.338194213657;-15.661805786343;1;Fritsche & deLange (2019);Experiment 1;Orientation;1
2;7;12;171;10;3.30096387004869;160.396345305577;-10.6036546944227;1;Fritsche & deLange (2019);Experiment 1;Orientation;1
2;7;13;31;-40;2.31765044322674;27.0769580012776;-3.92304199872238;1;Fritsche & deLange (2019);Experiment 1;Orientation;1
2;7;14;79;80;1.50092856323863;72.8140508001596;-6.18594919984035;1;Fritsche & deLange (2019);Experiment 1;Orientation;1
2;7;15;91;-50;2.41787838328855;64.6385914369226;-26.3614085630774;1;Fritsche & deLange (2019);Experiment 1;Orientation;1
2;7;16;170;-60;2.81758578249901;161.829157258955;-8.17084274104548;1;Fritsche & deLange (2019);Experiment 1;Orientation;1
2;7;17;34;60;1.96761655865976;19.9845219308749;-14.0154780691251;1;Fritsche & deLange (2019);Experiment 1;Orientation;1
2;7;18;2;-80;1.917617541033;21.7928693057946;19.7928693057946;1;Fritsche & deLange (2019);Experiment 1;Orientation;1
2;7;19;171;-60;2.93426159355113;160.973281877635;-10.0267181223646;1;Fritsche & deLange (2019);Experiment 1;Orientation;1
2;7;20;15;-70;2.01763815622144;26.1054188662128;11.1054188662128;1;Fritsche & deLange (2019);Experiment 1;Orientation;1
2;7;21;41;-30;2.4342605671909;25.0595392763712;-15.9404607236288;1;Fritsche & deLange (2019);Experiment 1;Orientation;1
2;7;22;34;60;1.53425977542611;68.0300594906382;34.0300594906382;1;Fritsche & deLange (2019);Experiment 1;Orientation;1
2;7;23;165;40;1.83428379226825;157.811193509368;-7.18880649063215;1;Fritsche & deLange (2019);Experiment 1;Orientation;1
2;7;24;92;0;3.0175501824433;103.44510277853;11.4451027785304;1;Fritsche & deLange (2019);Experiment 1;Orientation;1
2;7;25;164;-70;2.48420680054915;113.823916161373;-50.1760838386275;1;Fritsche & deLange (2019);Experiment 1;Orientation;1
2;7;26;110;60;1.73429220842627;100.822999524118;-9.17700047588156;1;Fritsche & deLange (2019);Experiment 1;Orientation;1
2;7;27;59;-70;1.73427138796524;73.6212479598094;14.6212479598094;1;Fritsche & deLange (2019);Experiment 1;Orientation;1
2;7;28;174;20;2.65091623224725;173.536777321324;-0.463222678676232;1;Fritsche & deLange (2019);Experiment 1;Orientation;1
2;7;29;158;70;2.10093319652424;155.577803235258;-2.42219676474207;1;Fritsche & deLange (2019);Experiment 1;Orientation;1
2;7;30;22;80;2.51762715950008;21.5293785612426;-0.470621438757405;1;Fritsche & deLange (2019);Experiment 1;Orientation;1
2;7;31;129;-50;2.13411162758257;120.094020532401;-8.90597946759898;1;Fritsche & deLange (2019);Experiment 1;Orientation;1
2;7;32;8;-50;2.7676231273681;134.322621668153;-53.6773783318475;1;Fritsche & deLange (2019);Experiment 1;Orientation;1
2;7;33;124;0;2.03425523011447;110.76590141688;-13.2340985831195;1;Fritsche & deLange (2019);Experiment 1;Orientation;1
2;7;34;96;10;1.9009312611015;100.379192087704;4.37919208770374;1;Fritsche & deLange (2019);Experiment 1;Orientation;1
2;7;35;144;0;2.41762589854261;128.922724827929;-15.0772751720706;1;Fritsche & deLange (2019);Experiment 1;Orientation;1
2;7;36;143;60;3.38427679835331;149.431192952037;6.43119295203718;1;Fritsche & deLange (2019);Experiment 1;Orientation;1
2;8;1;177;70;1.41760859703209;163.718361295644;-13.2816387043558;1;Fritsche & deLange (2019);Experiment 1;Orientation;1
2;8;2;76;0;1.76754717667154;74.2008910009838;-1.79910899901618;1;Fritsche & deLange (2019);Experiment 1;Orientation;1
2;8;3;115;-90;2.05089371095983;108.858486030894;-6.14151396910637;1;Fritsche & deLange (2019);Experiment 1;Orientation;1
2;8;4;100;-20;1.83426649075773;108.042895024266;8.04289502426637;1;Fritsche & deLange (2019);Experiment 1;Orientation;1
2;8;5;122;-60;1.43425646174728;113.669147434011;-8.33085256598852;1;Fritsche & deLange (2019);Experiment 1;Orientation;1
2;8;6;180;50;1.43428344037238;41.7756017663475;41.7756017663475;1;Fritsche & deLange (2019);Experiment 1;Orientation;1
2;8;7;47;40;1.93423490817167;25.7612458051192;-21.2387541948808;1;Fritsche & deLange (2019);Experiment 1;Orientation;1
2;8;8;6;80;1.48424756173335;33.1659428673782;27.1659428673782;1;Fritsche & deLange (2019);Experiment 1;Orientation;1
2;8;9;171;50;1.68425008364829;154.265817603387;-16.7341823966127;1;Fritsche & deLange (2019);Experiment 1;Orientation;1
2;8;10;175;-40;2.06761928584638;172.523426597554;-2.47657340244564;1;Fritsche & deLange (2019);Experiment 1;Orientation;1
2;8;11;56;-20;1.73429514088548;71.9667103997541;15.9667103997541;1;Fritsche & deLange (2019);Experiment 1;Orientation;1
2;8;12;129;30;1.51760985798956;123.38578557676;-5.61421442323959;1;Fritsche & deLange (2019);Experiment 1;Orientation;1
2;8;13;160;-50;1.4509474336146;165.22506508628;5.2250650862797;1;Fritsche & deLange (2019);Experiment 1;Orientation;1
2;8;14;153;-80;3.61757974163265;143.789418714244;-9.21058128575572;1;Fritsche & deLange (2019);Experiment 1;Orientation;1
2;8;15;88;-70;2.25092790343479;81.1406307102429;-6.85936928975713;1;Fritsche & deLange (2019);Experiment 1;Orientation;1
2;8;16;149;80;2.33428305915368;142.735420859289;-6.26457914071062;1;Fritsche & deLange (2019);Experiment 1;Orientation;1
2;8;17;71;-70;1.78461291683834;68.221109771178;-2.77889022882196;1;Fritsche & deLange (2019);Experiment 1;Orientation;1
2;8;18;128;40;2.23425921825856;81.7242365722671;-46.2757634277329;1;Fritsche & deLange (2019);Experiment 1;Orientation;1
2;8;19;107;40;2.13428024399218;104.319678598635;-2.68032140136496;1;Fritsche & deLange (2019);Experiment 1;Orientation;1
2;8;20;125;-40;2.40094372405383;99.2636782867785;-25.7363217132215;1;Fritsche & deLange (2019);Experiment 1;Orientation;1
2;8;21;69;-20;2.30091167227329;56.7124209995829;-12.2875790004171;1;Fritsche & deLange (2019);Experiment 1;Orientation;1
2;8;22;166;-70;1.38426360228641;160.838664787392;-5.16133521260826;1;Fritsche & deLange (2019);Experiment 1;Orientation;1
2;8;23;155;-50;2.4675952983298;159.320830458988;4.32083045898815;1;Fritsche & deLange (2019);Experiment 1;Orientation;1
2;8;24;45;80;2.98421955674712;38.6804452263567;-6.31955477364333;1;Fritsche & deLange (2019);Experiment 1;Orientation;1
2;8;25;132;-20;1.13425355861273;119.035400524065;-12.9645994759351;1;Fritsche & deLange (2019);Experiment 1;Orientation;1
2;8;26;165;-80;1.58431480302534;155.711362718595;-9.2886372814055;1;Fritsche & deLange (2019);Experiment 1;Orientation;1
2;8;27;8;70;1.81758724872816;25.5558134877935;17.5558134877935;1;Fritsche & deLange (2019);Experiment 1;Orientation;1
2;8;28;157;-50;1.6343041435357;128.503176343141;-28.496823656859;1;Fritsche & deLange (2019);Experiment 1;Orientation;1
2;8;29;32;80;2.88429278025615;24.5002962131068;-7.49970378689324;1;Fritsche & deLange (2019);Experiment 1;Orientation;1
2;8;30;18;10;2.98424653537222;26.0665177404148;8.06651774041482;1;Fritsche & deLange (2019);Experiment 1;Orientation;1
2;8;31;147;-30;2.13451572047506;161.01386698638;14.01386698638;1;Fritsche & deLange (2019);Experiment 1;Orientation;1
2;8;32;151;-50;1.68449582373796;157.558294768525;6.55829476852546;1;Fritsche & deLange (2019);Experiment 1;Orientation;1
2;8;33;163;-30;2.00091082186009;161.55004466706;-1.44995533293957;1;Fritsche & deLange (2019);Experiment 1;Orientation;1
2;8;34;166;80;2.900943284184;161.894370604723;-4.10562939527733;1;Fritsche & deLange (2019);Experiment 1;Orientation;1
2;8;35;60;0;2.18426049387926;63.4615546696142;3.46155466961416;1;Fritsche & deLange (2019);Experiment 1;Orientation;1
2;8;36;36;10;1.45093804974476;62.4295815618874;26.4295815618874;1;Fritsche & deLange (2019);Experiment 1;Orientation;1
2;1;1;174;-80;2.95518171469325;164.089513417556;-9.91048658244409;0;Fritsche & deLange (2019);Experiment 1;Orientation;1
2;1;2;176;-80;3.90040573280862;166.005269194851;-9.99473080514917;0;Fritsche & deLange (2019);Experiment 1;Orientation;1
2;1;3;64;-50;2.51708030729651;63.1902793357329;-0.80972066426714;0;Fritsche & deLange (2019);Experiment 1;Orientation;1
2;1;4;32;90;2.35033104348645;44.4758235533998;12.4758235533998;0;Fritsche & deLange (2019);Experiment 1;Orientation;1
2;1;5;109;70;1.84837891620441;111.160469064021;2.16046906402133;0;Fritsche & deLange (2019);Experiment 1;Orientation;1
2;1;6;131;-40;3.03417996871667;119.544954595224;-11.4550454047756;0;Fritsche & deLange (2019);Experiment 1;Orientation;1
2;1;7;50;-60;3.28370154064692;56.1946397300679;6.19463973006788;0;Fritsche & deLange (2019);Experiment 1;Orientation;1
2;1;8;24;30;2.36752747552441;62.2820185851452;38.2820185851452;0;Fritsche & deLange (2019);Experiment 1;Orientation;1
2;1;9;148;-90;2.48420468921086;148.27278795194;0.272787951940074;0;Fritsche & deLange (2019);Experiment 1;Orientation;1
2;1;10;174;-90;3.46759885118604;166.215785460217;-7.78421453978257;0;Fritsche & deLange (2019);Experiment 1;Orientation;1
2;1;11;25;0;2.93420565691713;18.3079817952534;-6.69201820474663;0;Fritsche & deLange (2019);Experiment 1;Orientation;1
2;1;12;105;40;1.66761873314954;110.047023593197;5.04702359319747;0;Fritsche & deLange (2019);Experiment 1;Orientation;1
2;1;13;179;-30;1.56758020084885;164.36475802563;-14.6352419743704;0;Fritsche & deLange (2019);Experiment 1;Orientation;1
2;1;14;14;80;2.25089806065807;15.1663043127082;1.16630431270825;0;Fritsche & deLange (2019);Experiment 1;Orientation;1
2;1;15;159;50;3.65089325145186;164.469164300548;5.4691643005475;0;Fritsche & deLange (2019);Experiment 1;Orientation;1
2;1;16;107;30;2.63428565396111;113.422790581319;6.42279058131926;0;Fritsche & deLange (2019);Experiment 1;Orientation;1
2;1;17;121;-80;3.38420486515747;115.630368023362;-5.36963197663766;0;Fritsche & deLange (2019);Experiment 1;Orientation;1
2;1;18;175;60;3.21752979215444;158.324205337363;-16.6757946626372;0;Fritsche & deLange (2019);Experiment 1;Orientation;1
2;1;19;176;50;1.98426802997892;172.372088367873;-3.62791163212674;0;Fritsche & deLange (2019);Experiment 1;Orientation;1
2;1;20;9;-20;2.63425075788996;15.3436832266778;6.34368322667775;0;Fritsche & deLange (2019);Experiment 1;Orientation;1
2;1;21;49;-50;2.95088597899326;60.0774993352775;11.0774993352775;0;Fritsche & deLange (2019);Experiment 1;Orientation;1
2;1;22;172;50;2.73424325083579;162.151949061638;-9.84805093836249;0;Fritsche & deLange (2019);Experiment 1;Orientation;1
2;1;23;58;-10;3.23422243049095;58.1476512624173;0.147651262417334;0;Fritsche & deLange (2019);Experiment 1;Orientation;1
2;1;24;153;-10;1.91761008244271;132.806660695545;-20.1933393044551;0;Fritsche & deLange (2019);Experiment 1;Orientation;1
2;1;25;90;80;2.15086861893087;96.5663225760023;6.56632257600231;0;Fritsche & deLange (2019);Experiment 1;Orientation;1
2;1;26;142;-40;2.66764717784622;113.643920757173;-28.3560792428268;0;Fritsche & deLange (2019);Experiment 1;Orientation;1
2;1;27;108;-40;2.8842629275282;106.889220017499;-1.1107799825008;0;Fritsche & deLange (2019);Experiment 1;Orientation;1
2;1;28;137;-60;2.78423436553385;108.836206492874;-28.163793507126;0;Fritsche & deLange (2019);Experiment 1;Orientation;1
2;1;29;62;-40;2.16758970196406;60.3619581234455;-1.63804187655454;0;Fritsche & deLange (2019);Experiment 1;Orientation;1
2;1;30;85;70;2.5675453047777;73.7452596423341;-11.2547403576659;0;Fritsche & deLange (2019);Experiment 1;Orientation;1
2;1;31;123;30;2.8009944500584;105.538018666956;-17.4619813330435;0;Fritsche & deLange (2019);Experiment 1;Orientation;1
2;1;32;10;30;2.00091111002916;22.2076276962974;12.2076276962974;0;Fritsche & deLange (2019);Experiment 1;Orientation;1
2;1;33;72;40;2.30095398234539;64.3085077730697;-7.69149222693025;0;Fritsche & deLange (2019);Experiment 1;Orientation;1
2;1;34;97;-10;2.50092283980121;83.8223268030729;-13.1776731969271;0;Fritsche & deLange (2019);Experiment 1;Orientation;1
2;1;35;120;-60;1.58424380799988;113.396039743066;-6.60396025693372;0;Fritsche & deLange (2019);Experiment 1;Orientation;1
2;1;36;58;20;2.21760867487001;58.1635518551165;0.163551855116509;0;Fritsche & deLange (2019);Experiment 1;Orientation;1
2;2;1;58;-60;2.9009101129991;71.9313995260815;13.9313995260815;0;Fritsche & deLange (2019);Experiment 1;Orientation;1
2;2;2;31;20;1.68424011312209;53.394038476893;22.394038476893;0;Fritsche & deLange (2019);Experiment 1;Orientation;1
2;2;3;118;10;2.26759392468239;155.127371849251;37.1273718492505;0;Fritsche & deLange (2019);Experiment 1;Orientation;1
2;2;4;77;50;2.51754128733046;70.4849662019923;-6.51503379800775;0;Fritsche & deLange (2019);Experiment 1;Orientation;1
2;2;5;4;-70;2.78425987778746;14.1408063617296;10.1408063617296;0;Fritsche & deLange (2019);Experiment 1;Orientation;1
2;2;6;43;-20;2.98429471521013;53.3800481614747;10.3800481614747;0;Fritsche & deLange (2019);Experiment 1;Orientation;1
2;2;7;98;-20;3.45093700350071;111.565966920267;13.5659669202666;0;Fritsche & deLange (2019);Experiment 1;Orientation;1
2;2;8;27;10;2.68427324972754;34.1930924232468;7.19309242324684;0;Fritsche & deLange (2019);Experiment 1;Orientation;1
2;2;9;29;-40;4.55092920320249;23.6420404489404;-5.35795955105955;0;Fritsche & deLange (2019);Experiment 1;Orientation;1
2;2;10;174;20;3.01764920123196;34.943492351479;40.943492351479;0;Fritsche & deLange (2019);Experiment 1;Orientation;1
2;2;11;145;-60;1.9009441293374;120.061106611496;-24.9388933885042;0;Fritsche & deLange (2019);Experiment 1;Orientation;1
2;2;12;10;-70;2.03424506895044;21.6295261904619;11.6295261904619;0;Fritsche & deLange (2019);Experiment 1;Orientation;1
2;2;13;165;60;1.83424600733224;159.200883688439;-5.79911631156125;0;Fritsche & deLange (2019);Experiment 1;Orientation;1
2;2;14;0;-30;2.25093852837108;162.090010788976;-17.9099892110237;0;Fritsche & deLange (2019);Experiment 1;Orientation;1
2;2;15;152;-10;2.40122593710612;153.607937561993;1.60793756199254;0;Fritsche & deLange (2019);Experiment 1;Orientation;1
2;2;16;62;30;1.2842979995462;74.2576376456442;12.2576376456442;0;Fritsche & deLange (2019);Experiment 1;Orientation;1
2;2;17;36;-20;2.11758187234136;25.0800653874872;-10.9199346125128;0;Fritsche & deLange (2019);Experiment 1;Orientation;1
2;2;18;59;-60;3.60090712190686;71.6481801376753;12.6481801376753;0;Fritsche & deLange (2019);Experiment 1;Orientation;1
2;2;19;148;-50;1.96763462699028;106.936273696264;-41.0637263037363;0;Fritsche & deLange (2019);Experiment 1;Orientation;1
2;2;20;179;-60;2.10095550721553;15.7210962500916;16.7210962500916;0;Fritsche & deLange (2019);Experiment 1;Orientation;1
2;2;21;164;60;2.38423829500744;157.02637253272;-6.97362746727967;0;Fritsche & deLange (2019);Experiment 1;Orientation;1
2;2;22;121;-40;3.00094219392486;76.0926167360902;-44.9073832639098;0;Fritsche & deLange (2019);Experiment 1;Orientation;1
2;2;23;174;-20;3.55087729896195;155.410647518098;-18.5893524819023;0;Fritsche & deLange (2019);Experiment 1;Orientation;1
2;2;24;120;-10;2.86755328102254;124.953286204307;4.95328620430706;0;Fritsche & deLange (2019);Experiment 1;Orientation;1
2;2;25;95;60;2.41753090648263;100.712333340604;5.71233334060439;0;Fritsche & deLange (2019);Experiment 1;Orientation;1
2;2;26;55;10;2.83426800065445;36.7137714850338;-18.2862285149662;0;Fritsche & deLange (2019);Experiment 1;Orientation;1
2;2;27;8;-70;1.71757759097454;15.299560713224;7.29956071322397;0;Fritsche & deLange (2019);Experiment 1;Orientation;1
2;2;28;148;60;5.83422049507863;20.3081827198788;52.3081827198788;0;Fritsche & deLange (2019);Experiment 1;Orientation;1
2;2;29;56;-60;4.71753067188729;43.3813446566875;-12.6186553433125;0;Fritsche & deLange (2019);Experiment 1;Orientation;1
2;2;30;8;-70;3.75091008367463;15.5761052869216;7.57610528692159;0;Fritsche & deLange (2019);Experiment 1;Orientation;1
2;2;31;44;80;2.70087380935456;41.2569896401025;-2.74301035989751;0;Fritsche & deLange (2019);Experiment 1;Orientation;1
2;2;32;144;50;2.5342623703641;134.825017018507;-9.17498298149295;0;Fritsche & deLange (2019);Experiment 1;Orientation;1
2;2;33;28;-50;6.11756369119485;12.6775153074076;-15.3224846925924;0;Fritsche & deLange (2019);Experiment 1;Orientation;1
2;2;34;110;0;4.18425272262675;109.757624548763;-0.242375451236697;0;Fritsche & deLange (2019);Experiment 1;Orientation;1
2;2;35;25;-70;5.03421398505498;18.0196770018794;-6.98032299812058;0;Fritsche & deLange (2019);Experiment 1;Orientation;1
2;2;36;138;40;2.63422436590326;136.227793100557;-1.77220689944255;0;Fritsche & deLange (2019);Experiment 1;Orientation;1
2;3;1;136;-90;2.3175903177771;143.315922123035;7.31592212303514;0;Fritsche & deLange (2019);Experiment 1;Orientation;1
2;3;2;42;-30;3.40093357254273;59.6188788091908;17.6188788091908;0;Fritsche & deLange (2019);Experiment 1;Orientation;1
2;3;3;28;-60;2.7009081189376;23.9178252501199;-4.08217474988014;0;Fritsche & deLange (2019);Experiment 1;Orientation;1
2;3;4;68;-40;3.25095055138718;78.0759415719401;10.0759415719401;0;Fritsche & deLange (2019);Experiment 1;Orientation;1
2;3;5;24;10;2.18419055483582;46.8409724807125;22.8409724807125;0;Fritsche & deLange (2019);Experiment 1;Orientation;1
2;3;6;151;80;2.73424559679006;159.804641756253;8.80464175625252;0;Fritsche & deLange (2019);Experiment 1;Orientation;1
2;3;7;101;-60;3.2009304055041;105.602691760032;4.6026917600325;0;Fritsche & deLange (2019);Experiment 1;Orientation;1
2;3;8;40;40;2.53423597837718;51.3291817548279;11.3291817548279;0;Fritsche & deLange (2019);Experiment 1;Orientation;1
2;3;9;22;10;1.96764694325111;21.1413176534261;-0.858682346573872;0;Fritsche & deLange (2019);Experiment 1;Orientation;1
2;3;10;75;-80;2.1842747159485;76.0806512084072;1.0806512084072;0;Fritsche & deLange (2019);Experiment 1;Orientation;1
2;3;11;82;60;3.33423017214;79.558097869843;-2.441902130157;0;Fritsche & deLange (2019);Experiment 1;Orientation;1
2;3;12;155;10;2.484286797614;156.315666475975;1.31566647597487;0;Fritsche & deLange (2019);Experiment 1;Orientation;1
2;3;13;165;40;3.61758891020418;154.383809363421;-10.6161906365786;0;Fritsche & deLange (2019);Experiment 1;Orientation;1
2;3;14;180;-90;3.76758190166584;170.433633366764;-9.5663666332355;0;Fritsche & deLange (2019);Experiment 1;Orientation;1
2;3;15;33;-10;2.43426283955478;39.3220170673193;6.3220170673193;0;Fritsche & deLange (2019);Experiment 1;Orientation;1
2;3;16;84;40;2.08423794311375;79.5385950920891;-4.4614049079109;0;Fritsche & deLange (2019);Experiment 1;Orientation;1
2;3;17;175;0;3.03430547727567;171.321254988735;-3.67874501126533;0;Fritsche & deLange (2019);Experiment 1;Orientation;1
2;3;18;48;20;3.66757679921511;71.8134922804992;23.8134922804992;0;Fritsche & deLange (2019);Experiment 1;Orientation;1
2;3;19;88;-10;2.88428462760612;76.1733930457444;-11.8266069542556;0;Fritsche & deLange (2019);Experiment 1;Orientation;1
2;3;20;164;70;2.13426688632626;164.391096608125;0.391096608125139;0;Fritsche & deLange (2019);Experiment 1;Orientation;1
2;3;21;42;50;2.2341517586151;24.3868744465851;-17.6131255534149;0;Fritsche & deLange (2019);Experiment 1;Orientation;1
2;3;22;4;-70;2.16760993582056;13.337153433323;9.33715343332302;0;Fritsche & deLange (2019);Experiment 1;Orientation;1
2;3;23;102;-80;2.86750724166768;101.833821080211;-0.166178919788692;0;Fritsche & deLange (2019);Experiment 1;Orientation;1
2;3;24;17;-50;1.65092521507995;14.7122171955765;-2.28778280442354;0;Fritsche & deLange (2019);Experiment 1;Orientation;1
2;3;25;129;80;3.16758588978837;118.777148559315;-10.2228514406849;0;Fritsche & deLange (2019);Experiment 1;Orientation;1
2;3;26;91;-90;2.13420618475675;80.58136004151;-10.41863995849;0;Fritsche & deLange (2019);Experiment 1;Orientation;1
2;3;27;81;60;2.48429588818726;71.7946169980357;-9.20538300196429;0;Fritsche & deLange (2019);Experiment 1;Orientation;1
2;3;28;104;30;2.15090996637628;106.374412646491;2.37441264649065;0;Fritsche & deLange (2019);Experiment 1;Orientation;1
2;3;29;73;50;2.3342688803873;67.8387695281929;-5.1612304718071;0;Fritsche & deLange (2019);Experiment 1;Orientation;1
2;3;30;169;-70;1.36763245698239;160.822379641382;-8.17762035861847;0;Fritsche & deLange (2019);Experiment 1;Orientation;1
2;3;31;132;30;1.71756498146988;131.784638344898;-0.215361655102356;0;Fritsche & deLange (2019);Experiment 1;Orientation;1
2;3;32;146;30;2.58425876345927;116.512576739454;-29.4874232605465;0;Fritsche & deLange (2019);Experiment 1;Orientation;1
2;3;33;66;90;3.20086442553702;46.9150827996939;-19.0849172003061;0;Fritsche & deLange (2019);Experiment 1;Orientation;1
2;3;34;49;0;2.85086445486195;60.4587835605404;11.4587835605404;0;Fritsche & deLange (2019);Experiment 1;Orientation;1
2;3;35;153;0;2.65092521508041;140.233905509181;-12.7660944908193;0;Fritsche & deLange (2019);Experiment 1;Orientation;1
2;3;36;48;40;2.58455757939737;52.0375712027267;4.03757120272671;0;Fritsche & deLange (2019);Experiment 1;Orientation;1
2;4;1;81;-30;2.60089333942506;70.8970301326367;-10.1029698673633;0;Fritsche & deLange (2019);Experiment 1;Orientation;1
2;4;2;31;-10;3.50094219392486;33.1802574835809;2.18025748358089;0;Fritsche & deLange (2019);Experiment 1;Orientation;1
2;4;3;27;-20;3.1675926344069;30.3011058579979;3.30110585799788;0;Fritsche & deLange (2019);Experiment 1;Orientation;1
2;4;4;7;70;2.48421905818168;11.5887533700182;4.58875337001815;0;Fritsche & deLange (2019);Experiment 1;Orientation;1
2;4;5;157;30;2.06763357131103;170.040416233753;13.040416233753;0;Fritsche & deLange (2019);Experiment 1;Orientation;1
2;4;6;79;40;2.35088791440558;87.4175761032537;8.41757610325367;0;Fritsche & deLange (2019);Experiment 1;Orientation;1
2;4;7;53;50;3.65091641775098;73.1182308978816;20.1182308978816;0;Fritsche & deLange (2019);Experiment 1;Orientation;1
2;4;8;106;10;3.31755278250739;96.4441681889856;-9.5558318110144;0;Fritsche & deLange (2019);Experiment 1;Orientation;1
2;4;9;39;10;3.78423495202242;59.3285259020664;20.3285259020664;0;Fritsche & deLange (2019);Experiment 1;Orientation;1
2;4;10;106;-30;2.9009118724648;100.37212088346;-5.62787911653986;0;Fritsche & deLange (2019);Experiment 1;Orientation;1
2;4;11;30;-10;3.55090779636885;77.3651466810943;47.3651466810943;0;Fritsche & deLange (2019);Experiment 1;Orientation;1
2;4;12;110;50;1.7342781469074;112.68842847409;2.68842847408979;0;Fritsche & deLange (2019);Experiment 1;Orientation;1
2;4;13;46;90;1.73422184400215;52.5652993767056;6.56529937670556;0;Fritsche & deLange (2019);Experiment 1;Orientation;1
2;4;14;6;10;2.18426210644384;16.9315552229575;10.9315552229575;0;Fritsche & deLange (2019);Experiment 1;Orientation;1
2;4;15;101;40;2.65093958405032;111.111185508717;10.1111855087166;0;Fritsche & deLange (2019);Experiment 1;Orientation;1
2;4;16;14;40;2.36759462846794;12.0862356372064;-1.91376436279363;0;Fritsche & deLange (2019);Experiment 1;Orientation;1
2;4;17;21;30;2.90094823475738;29.7214970006208;8.72149700062084;0;Fritsche & deLange (2019);Experiment 1;Orientation;1
2;4;18;89;-20;2.01763541874971;82.4775220172906;-6.52247798270943;0;Fritsche & deLange (2019);Experiment 1;Orientation;1
2;4;19;79;50;1.88425031802353;81.0962828612662;2.09628286126623;0;Fritsche & deLange (2019);Experiment 1;Orientation;1
2;4;20;106;-30;2.95091999533179;98.9298376058906;-7.07016239410943;0;Fritsche & deLange (2019);Experiment 1;Orientation;1
2;4;21;5;-60;1.6509381178289;5.46163507511648;0.461635075116476;0;Fritsche & deLange (2019);Experiment 1;Orientation;1
2;4;22;91;-50;2.58421507005914;101.614679286518;10.6146792865181;0;Fritsche & deLange (2019);Experiment 1;Orientation;1
2;4;23;139;-80;2.56799778072718;149.178097033995;10.1780970339952;0;Fritsche & deLange (2019);Experiment 1;Orientation;1
2;4;24;133;-10;1.68428468625461;124.698812762494;-8.30118723750643;0;Fritsche & deLange (2019);Experiment 1;Orientation;1
2;4;25;145;0;2.33429204668664;155.272589925403;10.2725899254033;0;Fritsche & deLange (2019);Experiment 1;Orientation;1
2;4;26;173;30;2.08429629872899;164.928047125227;-8.07195287477293;0;Fritsche & deLange (2019);Experiment 1;Orientation;1
2;4;27;162;20;3.23427052255556;168.890006898979;6.89000689897867;0;Fritsche & deLange (2019);Experiment 1;Orientation;1
2;4;28;157;70;1.80088360371428;160.453554888098;3.4535548880983;0;Fritsche & deLange (2019);Experiment 1;Orientation;1
2;4;29;42;20;2.95090298716241;60.9775620203031;18.9775620203031;0;Fritsche & deLange (2019);Experiment 1;Orientation;1
2;4;30;158;70;2.05091014232312;152.65522172932;-5.34477827067974;0;Fritsche & deLange (2019);Experiment 1;Orientation;1
2;4;31;77;-20;1.63421380910859;73.7296461049375;-3.27035389506254;0;Fritsche & deLange (2019);Experiment 1;Orientation;1
2;4;32;120;20;2.95091706288895;109.919351856988;-10.0806481430117;0;Fritsche & deLange (2019);Experiment 1;Orientation;1
2;4;33;154;50;2.6841955399891;147.013604473756;-6.98639552624402;0;Fritsche & deLange (2019);Experiment 1;Orientation;1
2;4;34;93;70;2.38430779390546;95.4053291837126;2.4053291837126;0;Fritsche & deLange (2019);Experiment 1;Orientation;1
2;4;35;68;-20;1.40095585910876;65.6879916106319;-2.31200838936815;0;Fritsche & deLange (2019);Experiment 1;Orientation;1
2;4;36;102;30;2.56756348592398;101.341712122723;-0.658287877276592;0;Fritsche & deLange (2019);Experiment 1;Orientation;1
2;5;1;32;70;3.36758935007083;27.7747576351758;-4.22524236482418;0;Fritsche & deLange (2019);Experiment 1;Orientation;1
2;5;2;49;60;1.76756841242832;30.9216811110957;-18.0783188889043;0;Fritsche & deLange (2019);Experiment 1;Orientation;1
2;5;3;131;-80;2.28429037519436;133.765420050346;2.76542005034614;0;Fritsche & deLange (2019);Experiment 1;Orientation;1
2;5;4;115;10;2.46762201748516;119.265420911928;4.26542091192789;0;Fritsche & deLange (2019);Experiment 1;Orientation;1
2;5;5;20;-50;2.41758662289885;28.5476461929306;8.54764619293063;0;Fritsche & deLange (2019);Experiment 1;Orientation;1
2;5;6;66;40;1.06760541985841;19.1231767052369;-46.8768232947631;0;Fritsche & deLange (2019);Experiment 1;Orientation;1
2;5;7;80;10;1.46763345401314;74.361909468275;-5.63809053172503;0;Fritsche & deLange (2019);Experiment 1;Orientation;1
2;5;8;160;0;4.76759861659048;108.753332984336;-51.2466670156641;0;Fritsche & deLange (2019);Experiment 1;Orientation;1
2;5;9;138;70;2.5009451263677;129.5421175505;-8.45788244950012;0;Fritsche & deLange (2019);Experiment 1;Orientation;1
2;5;10;163;-40;2.58428339598004;139.530659192571;-23.4693408074293;0;Fritsche & deLange (2019);Experiment 1;Orientation;1
2;5;11;1;70;2.38417642046079;9.16456987955227;8.16456987955227;0;Fritsche & deLange (2019);Experiment 1;Orientation;1
2;5;12;2;-30;1.86756706350434;16.6472368857959;14.6472368857959;0;Fritsche & deLange (2019);Experiment 1;Orientation;1
2;5;13;180;-20;1.65090908664388;22.4539525193804;22.4539525193804;0;Fritsche & deLange (2019);Experiment 1;Orientation;1
2;5;14;109;50;1.56764911325899;120.841883677051;11.8418836770512;0;Fritsche & deLange (2019);Experiment 1;Orientation;1
2;5;15;167;-10;2.73421539262745;155.27981519524;-11.72018480476;0;Fritsche & deLange (2019);Experiment 1;Orientation;1
2;5;16;19;90;1.26762823426452;19.0425635374394;0.042563537439392;0;Fritsche & deLange (2019);Experiment 1;Orientation;1
2;5;17;86;70;2.48426304482564;104.284986004253;18.2849860042528;0;Fritsche & deLange (2019);Experiment 1;Orientation;1
2;5;18;94;80;1.46756952675696;105.765062449178;11.7650624491781;0;Fritsche & deLange (2019);Experiment 1;Orientation;1
2;5;19;72;70;2.5509168869421;77.6599869339373;5.6599869339373;0;Fritsche & deLange (2019);Experiment 1;Orientation;1
2;5;20;156;30;2.00092459926782;155.60472747381;-0.395272526189558;0;Fritsche & deLange (2019);Experiment 1;Orientation;1
2;5;21;60;20;3.05092451129349;74.7506125249313;14.7506125249313;0;Fritsche & deLange (2019);Experiment 1;Orientation;1
2;5;22;11;20;1.83429761832849;22.5088303334951;11.5088303334951;0;Fritsche & deLange (2019);Experiment 1;Orientation;1
2;5;23;27;90;2.15093665160748;20.6266139414207;-6.37338605857933;0;Fritsche & deLange (2019);Experiment 1;Orientation;1
2;5;24;22;0;2.16758530329935;18.7968528809609;-3.2031471190391;0;Fritsche & deLange (2019);Experiment 1;Orientation;1
2;5;25;131;-50;2.1009091746173;103.368636935262;-27.6313630647382;0;Fritsche & deLange (2019);Experiment 1;Orientation;1
2;5;26;136;-40;2.11759066967079;114.813625955228;-21.1863740447719;0;Fritsche & deLange (2019);Experiment 1;Orientation;1
2;5;27;51;-20;2.58421800250198;66.031996509651;15.031996509651;0;Fritsche & deLange (2019);Experiment 1;Orientation;1
2;5;28;55;90;2.35086650757239;57.9160031383974;2.91600313839744;0;Fritsche & deLange (2019);Experiment 1;Orientation;1
2;5;29;168;20;2.81752551078716;163.894893586588;-4.10510641341182;0;Fritsche & deLange (2019);Experiment 1;Orientation;1
2;5;30;170;80;1.2175617557823;165.333228545519;-4.66677145448085;0;Fritsche & deLange (2019);Experiment 1;Orientation;1
2;5;31;51;-80;2.50116711230021;56.6920771086898;5.69207710868982;0;Fritsche & deLange (2019);Experiment 1;Orientation;1
2;5;32;74;-40;2.58423852960277;55.071946769445;-18.928053230555;0;Fritsche & deLange (2019);Experiment 1;Orientation;1
2;5;33;134;50;2.83425949656976;133.388289992035;-0.611710007964803;0;Fritsche & deLange (2019);Experiment 1;Orientation;1
2;5;34;52;-80;3.01757676989018;67.3222964133913;15.3222964133913;0;Fritsche & deLange (2019);Experiment 1;Orientation;1
2;5;35;32;-10;4.53424418921804;45.0184824153537;13.0184824153537;0;Fritsche & deLange (2019);Experiment 1;Orientation;1
2;5;36;54;20;2.45102497678999;47.3976662133309;-6.60233378666911;0;Fritsche & deLange (2019);Experiment 1;Orientation;1
2;6;1;153;10;3.38423653554128;151.656097210972;-1.34390278902785;0;Fritsche & deLange (2019);Experiment 1;Orientation;1
2;6;2;57;90;3.68424715098536;51.9813792907434;-5.01862070925661;0;Fritsche & deLange (2019);Experiment 1;Orientation;1
2;6;3;86;40;3.18429465656118;78.7122785901468;-7.28772140985321;0;Fritsche & deLange (2019);Experiment 1;Orientation;1
2;6;4;143;70;2.15092081641524;152.135245765341;9.13524576534115;0;Fritsche & deLange (2019);Experiment 1;Orientation;1
2;6;5;121;-80;3.81754163922324;124.952432554943;3.95243255494307;0;Fritsche & deLange (2019);Experiment 1;Orientation;1
2;6;6;51;-50;2.55090046526129;35.9840155965359;-15.0159844034641;0;Fritsche & deLange (2019);Experiment 1;Orientation;1
2;6;7;41;30;1.61758040611949;19.3276910426237;-21.6723089573763;0;Fritsche & deLange (2019);Experiment 1;Orientation;1
2;6;8;159;60;2.46761497962234;159.586055008437;0.586055008436659;0;Fritsche & deLange (2019);Experiment 1;Orientation;1
2;6;9;168;60;2.50091198976224;156.635867752849;-11.3641322471506;0;Fritsche & deLange (2019);Experiment 1;Orientation;1
2;6;10;179;-70;2.30092524440533;4.84619398327933;5.84619398327933;0;Fritsche & deLange (2019);Experiment 1;Orientation;1
2;6;11;160;-30;2.55093389511148;164.585082886897;4.58508288689703;0;Fritsche & deLange (2019);Experiment 1;Orientation;1
2;6;12;14;60;3.3675567999544;18.9640462543387;4.96404625433867;0;Fritsche & deLange (2019);Experiment 1;Orientation;1
2;6;13;89;0;6.65085894186905;89.734182716261;0.734182716261031;0;Fritsche & deLange (2019);Experiment 1;Orientation;1
2;6;14;50;80;2.9842618718485;74.5177947179762;24.5177947179762;0;Fritsche & deLange (2019);Experiment 1;Orientation;1
2;6;15;105;-10;2.41759366076258;101.313077497622;-3.68692250237841;0;Fritsche & deLange (2019);Experiment 1;Orientation;1
2;6;16;122;-80;2.7509464459672;116.510623621766;-5.48937637823428;0;Fritsche & deLange (2019);Experiment 1;Orientation;1
2;6;17;166;60;2.9342918707398;167.033253801043;1.03325380104303;0;Fritsche & deLange (2019);Experiment 1;Orientation;1
2;6;18;32;-30;2.75100040291818;13.9139018192266;-18.0860981807734;0;Fritsche & deLange (2019);Experiment 1;Orientation;1
2;6;19;151;30;3.05092333831635;161.96419469478;10.96419469478;0;Fritsche & deLange (2019);Experiment 1;Orientation;1
2;6;20;107;-70;2.08428955411;10.7820190342638;83.7820190342638;0;Fritsche & deLange (2019);Experiment 1;Orientation;1
2;6;21;9;80;1.7675918719724;5.51540767411991;-3.48459232588009;0;Fritsche & deLange (2019);Experiment 1;Orientation;1
2;6;22;27;-40;1.38425442344396;14.2697249434571;-12.7302750565429;0;Fritsche & deLange (2019);Experiment 1;Orientation;1
2;6;23;38;90;2.5342697014712;16.5363330656931;-21.4636669343069;0;Fritsche & deLange (2019);Experiment 1;Orientation;1
2;6;24;53;-30;2.30092788360253;46.4500157859492;-6.54998421405079;0;Fritsche & deLange (2019);Experiment 1;Orientation;1
2;6;25;154;-10;2.33426301550207;137.281821259825;-16.7181787401749;0;Fritsche & deLange (2019);Experiment 1;Orientation;1
2;6;26;0;-10;2.3675594391525;6.56816420048752;6.56816420048752;0;Fritsche & deLange (2019);Experiment 1;Orientation;1
2;6;27;129;-90;3.06774881632009;108.568675166152;-20.4313248338478;0;Fritsche & deLange (2019);Experiment 1;Orientation;1
2;6;28;42;-70;2.36755709319823;72.5678253861395;30.5678253861395;0;Fritsche & deLange (2019);Experiment 1;Orientation;1
2;6;29;60;-30;2.28425958454318;66.0904825159783;6.09048251597829;0;Fritsche & deLange (2019);Experiment 1;Orientation;1
2;6;30;71;-80;1.28451324085927;82.7859154309192;11.7859154309192;0;Fritsche & deLange (2019);Experiment 1;Orientation;1
2;6;31;85;-40;2.90091187246526;75.2982631936402;-9.70173680635985;0;Fritsche & deLange (2019);Experiment 1;Orientation;1
2;6;32;71;-30;3.53422718104866;95.1452107136718;24.1452107136718;0;Fritsche & deLange (2019);Experiment 1;Orientation;1
2;6;33;37;90;1.68427002404042;32.2289859404695;-4.77101405953047;0;Fritsche & deLange (2019);Experiment 1;Orientation;1
2;6;34;130;20;2.41754527545345;118.607338908933;-11.3926610910671;0;Fritsche & deLange (2019);Experiment 1;Orientation;1
2;6;35;15;0;2.90091949681664;12.1469443629007;-2.85305563709935;0;Fritsche & deLange (2019);Experiment 1;Orientation;1
2;6;36;32;-60;2.0008712288045;24.7228802899781;-7.27711971002189;0;Fritsche & deLange (2019);Experiment 1;Orientation;1
2;7;1;33;0;1.70088260668399;31.0663137600135;-1.93368623998654;0;Fritsche & deLange (2019);Experiment 1;Orientation;1
2;7;2;107;-40;2.58422357414292;104.006143489337;-2.99385651066265;0;Fritsche & deLange (2019);Experiment 1;Orientation;1
2;7;3;43;-80;2.88428814653707;56.6262568164826;13.6262568164826;0;Fritsche & deLange (2019);Experiment 1;Orientation;1
2;7;4;60;-30;2.63425838224157;53.7323479550937;-6.26765204490635;0;Fritsche & deLange (2019);Experiment 1;Orientation;1
2;7;5;152;-20;2.88424298691552;123.044079773081;-28.9559202269194;0;Fritsche & deLange (2019);Experiment 1;Orientation;1
2;7;6;58;20;1.20096119615573;73.120608998628;15.120608998628;0;Fritsche & deLange (2019);Experiment 1;Orientation;1
2;7;7;28;50;3.75092973104165;124.822087211348;-83.1779127886521;0;Fritsche & deLange (2019);Experiment 1;Orientation;1
2;7;8;169;20;1.60096401130068;149.198700637852;-19.8012993621485;0;Fritsche & deLange (2019);Experiment 1;Orientation;1
2;7;9;75;-10;2.1842363009464;76.0354134407106;1.03541344071057;0;Fritsche & deLange (2019);Experiment 1;Orientation;1
2;7;10;131;-60;1.60093058145048;113.811900852934;-17.1880991470657;0;Fritsche & deLange (2019);Experiment 1;Orientation;1
2;7;11;143;20;2.36759550820079;133.611844946896;-9.38815505310379;0;Fritsche & deLange (2019);Experiment 1;Orientation;1
2;7;12;171;10;2.40092536170232;155.091039545995;-15.9089604540046;0;Fritsche & deLange (2019);Experiment 1;Orientation;1
2;7;13;31;-40;1.33426712092114;18.8898165184196;-12.1101834815804;0;Fritsche & deLange (2019);Experiment 1;Orientation;1
2;7;14;79;80;1.93424348543158;71.3113822353893;-7.68861776461065;0;Fritsche & deLange (2019);Experiment 1;Orientation;1
2;7;15;91;-50;3.63426717957009;91.2432890943272;0.243289094327181;0;Fritsche & deLange (2019);Experiment 1;Orientation;1
2;7;16;170;-60;1.8842315503889;170.788288685013;0.788288685012958;0;Fritsche & deLange (2019);Experiment 1;Orientation;1
2;7;17;34;60;1.21756292875943;10.9792685283596;-23.0207314716404;0;Fritsche & deLange (2019);Experiment 1;Orientation;1
2;7;18;2;-80;2.65090879339914;19.7916374436615;17.7916374436615;0;Fritsche & deLange (2019);Experiment 1;Orientation;1
2;7;19;171;-60;1.88419518809587;164.603426048165;-6.39657395183477;0;Fritsche & deLange (2019);Experiment 1;Orientation;1
2;7;20;15;-70;2.66757445326039;16.4359537583836;1.43595375838363;0;Fritsche & deLange (2019);Experiment 1;Orientation;1
2;7;21;41;-30;1.23429368885536;25.1492467787436;-15.8507532212564;0;Fritsche & deLange (2019);Experiment 1;Orientation;1
2;7;22;34;60;2.68425829426815;23.3546237872963;-10.6453762127037;0;Fritsche & deLange (2019);Experiment 1;Orientation;1
2;7;23;165;40;2.78423847095382;149.112628883519;-15.8873711164806;0;Fritsche & deLange (2019);Experiment 1;Orientation;1
2;7;24;92;0;3.03426647578453;103.920591560031;11.9205915600312;0;Fritsche & deLange (2019);Experiment 1;Orientation;1
2;7;25;164;-70;2.2176253897951;163.376828966421;-0.623171033579297;0;Fritsche & deLange (2019);Experiment 1;Orientation;1
2;7;26;110;60;3.06754999668647;107.502188190814;-2.49781180918576;0;Fritsche & deLange (2019);Experiment 1;Orientation;1
2;7;27;59;-70;1.6342053050239;61.2227356910276;2.22273569102757;0;Fritsche & deLange (2019);Experiment 1;Orientation;1
2;7;28;174;20;1.38420134622629;66.8557813233683;72.8557813233683;0;Fritsche & deLange (2019);Experiment 1;Orientation;1
2;7;29;158;70;2.23420073041325;24.7006521324061;46.7006521324061;0;Fritsche & deLange (2019);Experiment 1;Orientation;1
2;7;30;22;80;3.33425216546311;28.611552774417;6.61155277441701;0;Fritsche & deLange (2019);Experiment 1;Orientation;1
2;7;31;129;-50;1.73430688484859;121.002034604828;-7.99796539517214;0;Fritsche & deLange (2019);Experiment 1;Orientation;1
2;7;32;8;-50;2.45089301685675;147.11475703543;-40.8852429645701;0;Fritsche & deLange (2019);Experiment 1;Orientation;1
2;7;33;124;0;2.21761043433617;108.459902259127;-15.5400977408728;0;Fritsche & deLange (2019);Experiment 1;Orientation;1
2;7;34;96;10;2.53429609345858;102.250883688046;6.25088368804595;0;Fritsche & deLange (2019);Experiment 1;Orientation;1
2;7;35;144;0;1.30091937951875;131.651771988882;-12.3482280111179;0;Fritsche & deLange (2019);Experiment 1;Orientation;1
2;7;36;143;60;1.13424782544735;138.687628710212;-4.31237128978805;0;Fritsche & deLange (2019);Experiment 1;Orientation;1
2;8;1;177;70;1.7175608760499;169.17645561755;-7.82354438245045;0;Fritsche & deLange (2019);Experiment 1;Orientation;1
2;8;2;76;0;2.53424946761515;76.4468405777297;0.446840577729731;0;Fritsche & deLange (2019);Experiment 1;Orientation;1
2;8;3;115;-90;1.98425072856571;117.995682932876;2.99568293287589;0;Fritsche & deLange (2019);Experiment 1;Orientation;1
2;8;4;100;-20;2.40091187246435;110.771942185219;10.771942185219;0;Fritsche & deLange (2019);Experiment 1;Orientation;1
2;8;5;122;-60;1.85091723883488;108.211053112106;-13.7889468878939;0;Fritsche & deLange (2019);Experiment 1;Orientation;1
2;8;6;180;50;2.50094629934574;137.777087466524;-42.2229125334757;0;Fritsche & deLange (2019);Experiment 1;Orientation;1
2;8;7;47;40;1.65096333683869;35.3129108684537;-11.6870891315463;0;Fritsche & deLange (2019);Experiment 1;Orientation;1
2;8;8;6;80;1.46757597813121;24.9788013845201;18.9788013845201;0;Fritsche & deLange (2019);Experiment 1;Orientation;1
2;8;9;171;50;1.66757591948226;158.359388344816;-12.6406116551836;0;Fritsche & deLange (2019);Experiment 1;Orientation;1
2;8;10;175;-40;1.63431996354393;168.226968549276;-6.77303145072403;0;Fritsche & deLange (2019);Experiment 1;Orientation;1
2;8;11;56;-20;1.51760257538899;33.2138885233993;-22.7861114766007;0;Fritsche & deLange (2019);Experiment 1;Orientation;1
2;8;12;129;30;1.28434257267872;119.12888673599;-9.87111326401012;0;Fritsche & deLange (2019);Experiment 1;Orientation;1
2;8;13;160;-50;2.51756943878354;119.20975714109;-40.7902428589098;0;Fritsche & deLange (2019);Experiment 1;Orientation;1
2;8;14;153;-80;2.11759330886889;113.876895527898;-39.1231044721018;0;Fritsche & deLange (2019);Experiment 1;Orientation;1
2;8;15;88;-70;2.83428061015911;77.9550740412407;-10.0449259587593;0;Fritsche & deLange (2019);Experiment 1;Orientation;1
2;8;16;149;80;2.63425984846344;163.203274566434;14.2032745664343;0;Fritsche & deLange (2019);Experiment 1;Orientation;1
2;8;17;71;-70;1.30092407142729;70.9501569321307;-0.0498430678692756;0;Fritsche & deLange (2019);Experiment 1;Orientation;1
2;8;18;128;40;5.25091770802646;140.766744440054;12.7667444400544;0;Fritsche & deLange (2019);Experiment 1;Orientation;1
2;8;19;107;40;1.9509132507128;100.003867736901;-6.99613226309862;0;Fritsche & deLange (2019);Experiment 1;Orientation;1
2;8;20;125;-40;3.13426600659295;102.924022188458;-22.075977811542;0;Fritsche & deLange (2019);Experiment 1;Orientation;1
2;8;21;69;-20;2.0843256231592;58.0486190212756;-10.9513809787244;0;Fritsche & deLange (2019);Experiment 1;Orientation;1
2;8;22;166;-70;2.51756357389786;160.436926438275;-5.56307356172476;0;Fritsche & deLange (2019);Experiment 1;Orientation;1
2;8;23;155;-50;1.93418982172534;160.392759230243;5.39275923024275;0;Fritsche & deLange (2019);Experiment 1;Orientation;1
2;8;24;45;80;1.58423589040376;35.4399749224136;-9.56002507758641;0;Fritsche & deLange (2019);Experiment 1;Orientation;1
2;8;25;132;-20;1.51761547813749;134.585778218595;2.58577821859473;0;Fritsche & deLange (2019);Experiment 1;Orientation;1
2;8;26;165;-80;1.76761533151603;158.440409879547;-6.55959012045284;0;Fritsche & deLange (2019);Experiment 1;Orientation;1
2;8;27;8;70;2.76752383929488;19.8754790455836;11.8754790455836;0;Fritsche & deLange (2019);Experiment 1;Orientation;1
2;8;28;157;-50;5.31755835414879;110.961221032737;-46.0387789672633;0;Fritsche & deLange (2019);Experiment 1;Orientation;1
2;8;29;32;80;2.55091424774309;16.6085110562151;-15.3914889437849;0;Fritsche & deLange (2019);Experiment 1;Orientation;1
2;8;30;18;10;3.58427665136151;12.5309667295252;-5.46903327047481;0;Fritsche & deLange (2019);Experiment 1;Orientation;1
2;8;31;147;-30;2.03423861757619;152.753363349684;5.75336334968398;0;Fritsche & deLange (2019);Experiment 1;Orientation;1
2;8;32;151;-50;2.91752562808597;162.134963094161;11.1349630941612;0;Fritsche & deLange (2019);Experiment 1;Orientation;1
2;8;33;163;-30;1.88426468699436;158.900048697401;-4.09995130259892;0;Fritsche & deLange (2019);Experiment 1;Orientation;1
2;8;34;166;80;2.30090237134937;161.457731740661;-4.54226825933875;0;Fritsche & deLange (2019);Experiment 1;Orientation;1
2;8;35;60;0;1.53427234067021;54.8726748376396;-5.12732516236042;0;Fritsche & deLange (2019);Experiment 1;Orientation;1
2;8;36;36;10;1.91757078770752;56.3944188907513;20.3944188907513;0;Fritsche & deLange (2019);Experiment 1;Orientation;1
3;1;1;2;-20;3.07172854106943;2.82136088211897;0.821360882118967;1;Fritsche & deLange (2019);Experiment 1;Orientation;1
3;1;2;44;80;3.33387544730999;31.3012468628857;-12.6987531371143;1;Fritsche & deLange (2019);Experiment 1;Orientation;1
3;1;3;48;50;2.18384643062541;40.8296109020972;-7.17038909790283;1;Fritsche & deLange (2019);Experiment 1;Orientation;1
3;1;4;102;20;3.38393458035171;119.08203826424;17.0820382642402;1;Fritsche & deLange (2019);Experiment 1;Orientation;1
3;1;5;9;-50;2.24851038398492;4.0443768733997;-4.9556231266003;1;Fritsche & deLange (2019);Experiment 1;Orientation;1
3;1;6;50;-70;2.25097775524341;34.954375860886;-15.045624139114;1;Fritsche & deLange (2019);Experiment 1;Orientation;1
3;1;7;152;-40;2.38424864674334;148.165333644611;-3.83466635538875;1;Fritsche & deLange (2019);Experiment 1;Orientation;1
3;1;8;44;-20;2.73430305852571;41.9948416881246;-2.00515831187538;1;Fritsche & deLange (2019);Experiment 1;Orientation;1
3;1;9;84;80;2.20098958771678;78.3365319097865;-5.66346809021354;1;Fritsche & deLange (2019);Experiment 1;Orientation;1
3;1;10;155;20;2.78432934802345;154.719366639439;-0.28063336056087;1;Fritsche & deLange (2019);Experiment 1;Orientation;1
3;1;11;180;20;3.71768715761709;0.242533718494229;0.242533718494229;1;Fritsche & deLange (2019);Experiment 1;Orientation;1
3;1;12;10;60;3.134425107482;16.7498858114925;6.7498858114925;1;Fritsche & deLange (2019);Experiment 1;Orientation;1
3;1;13;47;60;3.0010782652862;38.8908659880796;-8.1091340119204;1;Fritsche & deLange (2019);Experiment 1;Orientation;1
3;1;14;10;-70;2.96768341873144;18.8123214474169;8.81232144741691;1;Fritsche & deLange (2019);Experiment 1;Orientation;1
3;1;15;170;-90;3.5010212289526;162.195810170309;-7.80418982969127;1;Fritsche & deLange (2019);Experiment 1;Orientation;1
3;1;16;91;40;3.41775287403016;71.7502080913478;-19.2497919086522;1;Fritsche & deLange (2019);Experiment 1;Orientation;1
3;1;17;15;70;2.13431924570114;19.0156877036349;4.01568770363491;1;Fritsche & deLange (2019);Experiment 1;Orientation;1
3;1;18;88;10;3.86775429627301;95.8677429448491;7.86774294484913;1;Fritsche & deLange (2019);Experiment 1;Orientation;1
3;1;19;53;30;2.78434928874663;39.1661441262939;-13.8338558737061;1;Fritsche & deLange (2019);Experiment 1;Orientation;1
3;1;20;36;60;2.18432999316451;33.102614590588;-2.89738540941203;1;Fritsche & deLange (2019);Experiment 1;Orientation;1
3;1;21;85;-40;3.00106858817048;89.8223109824066;4.82231098240658;1;Fritsche & deLange (2019);Experiment 1;Orientation;1
3;1;22;179;-40;1.58433767620795;8.13876620458494;9.13876620458495;1;Fritsche & deLange (2019);Experiment 1;Orientation;1
3;1;23;3;-40;2.20101597985035;4.54121114913634;1.54121114913634;1;Fritsche & deLange (2019);Experiment 1;Orientation;1
3;1;24;51;90;2.9176934917291;51.8074466090339;0.807446609033939;1;Fritsche & deLange (2019);Experiment 1;Orientation;1
3;1;25;2;40;3.0677509532693;173.30280993571;-8.6971900642896;1;Fritsche & deLange (2019);Experiment 1;Orientation;1
3;1;26;170;-80;3.41768366799033;166.19946648542;-3.80053351458008;1;Fritsche & deLange (2019);Experiment 1;Orientation;1
3;1;27;18;-70;2.01766894704474;29.7951225091841;11.7951225091841;1;Fritsche & deLange (2019);Experiment 1;Orientation;1
3;1;28;77;50;1.91766563336569;68.7007842885755;-8.29921571142447;1;Fritsche & deLange (2019);Experiment 1;Orientation;1
3;1;29;91;-30;1.78429591798727;96.094910922085;5.09491092208505;1;Fritsche & deLange (2019);Experiment 1;Orientation;1
3;1;30;166;60;4.20106788438011;160.169199940644;-5.83080005935568;1;Fritsche & deLange (2019);Experiment 1;Orientation;1
3;1;31;164;60;2.76770376999889;153.318262924427;-10.6817370755731;1;Fritsche & deLange (2019);Experiment 1;Orientation;1
3;1;32;22;-60;1.8676780523308;48.4268700526581;26.4268700526581;1;Fritsche & deLange (2019);Experiment 1;Orientation;1
3;1;33;109;-10;1.93436510936453;113.282931744532;4.28293174453162;1;Fritsche & deLange (2019);Experiment 1;Orientation;1
3;1;34;76;70;2.10100122958033;67.6106616330059;-8.38933836699412;1;Fritsche & deLange (2019);Experiment 1;Orientation;1
3;1;35;146;50;1.53425508349142;148.795811088754;2.79581108875436;1;Fritsche & deLange (2019);Experiment 1;Orientation;1
3;1;36;28;30;2.83434273470016;26.4941768816891;-1.50582311831085;1;Fritsche & deLange (2019);Experiment 1;Orientation;1
3;2;1;123;10;1.20098518902796;110.080011623837;-12.9199883761629;1;Fritsche & deLange (2019);Experiment 1;Orientation;1
3;2;2;32;-50;1.30098908919877;35.8175403545133;3.8175403545133;1;Fritsche & deLange (2019);Experiment 1;Orientation;1
3;2;3;175;-90;1.91757677984879;173.212478333305;-1.78752166669494;1;Fritsche & deLange (2019);Experiment 1;Orientation;1
3;2;4;101;-30;1.20095293197551;102.867064810152;1.86706481015233;1;Fritsche & deLange (2019);Experiment 1;Orientation;1
3;2;5;140;-80;2.36767731921623;149.499476735068;9.49947673506759;1;Fritsche & deLange (2019);Experiment 1;Orientation;1
3;2;6;64;30;2.88436345252512;64.3000220377539;0.300022037753891;1;Fritsche & deLange (2019);Experiment 1;Orientation;1
3;2;7;138;-10;2.01719007644056;146.940987352854;8.94098735285357;1;Fritsche & deLange (2019);Experiment 1;Orientation;1
3;2;8;42;80;1.38436301265619;38.9128688990996;-3.08713110090042;1;Fritsche & deLange (2019);Experiment 1;Orientation;1
3;2;9;139;-80;3.3177231682173;143.458210253186;4.45821025318574;1;Fritsche & deLange (2019);Experiment 1;Orientation;1
3;2;10;125;-60;2.55103051018637;132.64862942556;7.64862942556016;1;Fritsche & deLange (2019);Experiment 1;Orientation;1
3;2;11;14;90;3.06768086749184;18.3594676721868;4.35946767218678;1;Fritsche & deLange (2019);Experiment 1;Orientation;1
3;2;12;136;20;1.5010045139345;129.903075137443;-6.09692486255733;1;Fritsche & deLange (2019);Experiment 1;Orientation;1
3;2;13;115;-50;1.28426410080374;129.471917089911;14.4719170899115;1;Fritsche & deLange (2019);Experiment 1;Orientation;1
3;2;14;178;30;2.61769967921828;170.632389160249;-7.36761083975082;1;Fritsche & deLange (2019);Experiment 1;Orientation;1
3;2;15;179;-50;2.53436534396133;174.945257529702;-4.05474247029792;1;Fritsche & deLange (2019);Experiment 1;Orientation;1
3;2;16;81;20;2.68439963907258;67.7349828961042;-13.2650171038958;1;Fritsche & deLange (2019);Experiment 1;Orientation;1
3;2;17;159;30;3.21770050030682;161.644578183732;2.64457818373231;1;Fritsche & deLange (2019);Experiment 1;Orientation;1
3;2;18;151;0;2.80104553903993;152.899530636911;1.89953063691067;1;Fritsche & deLange (2019);Experiment 1;Orientation;1
3;2;19;127;-80;2.31771085188848;126.621078608142;-0.378921391858142;1;Fritsche & deLange (2019);Experiment 1;Orientation;1
3;2;20;115;-10;3.15103983540712;128.521432785177;13.5214327851767;1;Fritsche & deLange (2019);Experiment 1;Orientation;1
3;2;21;0;-20;3.05102068644783;173.934697299002;-6.06530270099847;1;Fritsche & deLange (2019);Experiment 1;Orientation;1
3;2;22;50;60;3.60110987719736;52.0659381839621;2.06593818396212;1;Fritsche & deLange (2019);Experiment 1;Orientation;1
3;2;23;89;-10;3.78432758854751;84.4176871177876;-4.58231288221241;1;Fritsche & deLange (2019);Experiment 1;Orientation;1
3;2;24;21;-30;2.61772489836812;22.7931475944265;1.79314759442653;1;Fritsche & deLange (2019);Experiment 1;Orientation;1
3;2;25;68;-10;1.60098642066077;71.930115858614;3.93011585861399;1;Fritsche & deLange (2019);Experiment 1;Orientation;1
3;2;26;151;-50;1.7343247587246;150.845952773576;-0.154047226424467;1;Fritsche & deLange (2019);Experiment 1;Orientation;1
3;2;27;170;0;1.43434707473989;169.22636221221;-0.773637787790364;1;Fritsche & deLange (2019);Experiment 1;Orientation;1
3;2;28;50;-40;1.71764580994113;49.8247551710252;-0.175244828974805;1;Fritsche & deLange (2019);Experiment 1;Orientation;1
3;2;29;130;10;3.23436654626948;145.027441996514;15.0274419965144;1;Fritsche & deLange (2019);Experiment 1;Orientation;1
3;2;30;109;0;2.00104512849566;118.478153722586;9.47815372258586;1;Fritsche & deLange (2019);Experiment 1;Orientation;1
3;2;31;118;20;1.66761688122961;122.511176170782;4.51117617078239;1;Fritsche & deLange (2019);Experiment 1;Orientation;1
3;2;32;84;-70;2.43437933179212;56.1711362789209;-27.8288637210791;1;Fritsche & deLange (2019);Experiment 1;Orientation;1
3;2;33;166;-90;2.70102375086753;160.606694791286;-5.39330520871428;1;Fritsche & deLange (2019);Experiment 1;Orientation;1
3;2;34;159;0;2.43436378975775;162.253468938143;3.2534689381435;1;Fritsche & deLange (2019);Experiment 1;Orientation;1
3;2;35;88;-10;2.55102611149732;82.6973167759727;-5.30268322402728;1;Fritsche & deLange (2019);Experiment 1;Orientation;1
3;2;36;52;-80;2.33432206086218;44.6581026482655;-7.34189735173447;1;Fritsche & deLange (2019);Experiment 1;Orientation;1
3;3;1;99;-40;2.10095343049352;99.768376920011;0.768376920011022;1;Fritsche & deLange (2019);Experiment 1;Orientation;1
3;3;2;7;-10;1.91763660201877;16.2472509126711;9.24725091267106;1;Fritsche & deLange (2019);Experiment 1;Orientation;1
3;3;3;18;-30;3.81771862290543;27.4190208065542;9.41902080655424;1;Fritsche & deLange (2019);Experiment 1;Orientation;1
3;3;4;101;-90;2.63435722104896;107.439858454032;6.43985845403188;1;Fritsche & deLange (2019);Experiment 1;Orientation;1
3;3;5;179;70;2.75100869268908;172.099290575136;-6.90070942486383;1;Fritsche & deLange (2019);Experiment 1;Orientation;1
3;3;6;62;-30;1.85103312007504;60.3986683341847;-1.60133166581532;1;Fritsche & deLange (2019);Experiment 1;Orientation;1
3;3;7;159;-50;2.30102163949732;166.734574120332;7.73457412033213;1;Fritsche & deLange (2019);Experiment 1;Orientation;1
3;3;8;14;40;1.23431317551058;17.7398893948904;3.73988939489041;1;Fritsche & deLange (2019);Experiment 1;Orientation;1
3;3;9;60;40;2.15100699186269;71.4107220547271;11.4107220547271;1;Fritsche & deLange (2019);Experiment 1;Orientation;1
3;3;10;56;-70;3.73440657433912;60.5456548040845;4.54565480408446;1;Fritsche & deLange (2019);Experiment 1;Orientation;1
3;3;11;83;50;2.60103128728815;83.0588415906293;0.0588415906293136;1;Fritsche & deLange (2019);Experiment 1;Orientation;1
3;3;12;3;-60;2.63435722104941;4.01901350272924;1.01901350272924;1;Fritsche & deLange (2019);Experiment 1;Orientation;1
3;3;13;137;50;1.00095568848701;161.467388449152;24.4673884491521;1;Fritsche & deLange (2019);Experiment 1;Orientation;1
3;3;14;5;-60;2.11767314046165;3.97538429949969;-1.02461570050031;1;Fritsche & deLange (2019);Experiment 1;Orientation;1
3;3;15;56;70;1.7176393585305;68.6885773568038;12.6885773568038;1;Fritsche & deLange (2019);Experiment 1;Orientation;1
3;3;16;10;80;2.6510159358636;14.8815684986079;4.88156849860792;1;Fritsche & deLange (2019);Experiment 1;Orientation;1
3;3;17;172;-20;1.90099196300889;179.135231210899;7.13523121089906;1;Fritsche & deLange (2019);Experiment 1;Orientation;1
3;3;18;62;60;1.90098521835262;51.8513755517569;-10.1486244482431;1;Fritsche & deLange (2019);Experiment 1;Orientation;1
3;3;19;93;-20;4.10109242906447;83.3035108638112;-9.69648913618883;1;Fritsche & deLange (2019);Experiment 1;Orientation;1
3;3;20;51;-30;1.90102246058586;46.9667787119476;-4.03322128805239;1;Fritsche & deLange (2019);Experiment 1;Orientation;1
3;3;21;126;-40;3.5177086818685;136.089107841977;10.0891078419772;1;Fritsche & deLange (2019);Experiment 1;Orientation;1
3;3;22;117;10;3.18440741008999;135.444769479968;18.4447694799683;1;Fritsche & deLange (2019);Experiment 1;Orientation;1
3;3;23;15;60;1.6343299491773;24.1821932409946;9.18219324099455;1;Fritsche & deLange (2019);Experiment 1;Orientation;1
3;3;24;82;-80;1.83430813168025;176.625723680147;-85.3742763198534;1;Fritsche & deLange (2019);Experiment 1;Orientation;1
3;3;25;153;-10;2.03436402435455;154.213829677834;1.21382967783404;1;Fritsche & deLange (2019);Experiment 1;Orientation;1
3;3;26;25;-50;3.0510523570083;28.0256957054271;3.0256957054271;1;Fritsche & deLange (2019);Experiment 1;Orientation;1
3;3;27;180;-30;2.90103477691446;170.296364055413;-9.70363594458735;1;Fritsche & deLange (2019);Experiment 1;Orientation;1
3;3;28;81;40;2.68434656155932;73.1892674880393;-7.81073251196069;1;Fritsche & deLange (2019);Experiment 1;Orientation;1
3;3;29;152;-80;2.56771004546181;159.877913322593;7.87791332259252;1;Fritsche & deLange (2019);Experiment 1;Orientation;1
3;3;30;180;20;3.88442444767861;2.51790302464681;2.51790302464681;1;Fritsche & deLange (2019);Experiment 1;Orientation;1
3;3;31;123;0;1.21767146895991;121.571911854493;-1.42808814550747;1;Fritsche & deLange (2019);Experiment 1;Orientation;1
3;3;32;5;-10;2.33436282204639;11.0184297589463;6.01842975894634;1;Fritsche & deLange (2019);Experiment 1;Orientation;1
3;3;33;64;30;2.31769794906722;70.1727078211386;6.17270782113862;1;Fritsche & deLange (2019);Experiment 1;Orientation;1
3;3;34;78;80;2.90101600917524;70.5274298791135;-7.47257012088652;1;Fritsche & deLange (2019);Experiment 1;Orientation;1
3;3;35;156;30;1.35100482184271;152.247277644262;-3.75272235573789;1;Fritsche & deLange (2019);Experiment 1;Orientation;1
3;3;36;25;-50;2.01801380425877;26.1094746380888;1.10947463808883;1;Fritsche & deLange (2019);Experiment 1;Orientation;1
3;4;1;35;80;3.25105341269364;33.1435874842801;-1.85641251571989;1;Fritsche & deLange (2019);Experiment 1;Orientation;1
3;4;2;42;50;3.66768579402333;30.1625039889768;-11.8374960110232;1;Fritsche & deLange (2019);Experiment 1;Orientation;1
3;4;3;130;0;1.86766632249373;147.798908509401;17.7989085094015;1;Fritsche & deLange (2019);Experiment 1;Orientation;1
3;4;4;6;10;2.43433065296767;8.35682178506188;2.35682178506188;1;Fritsche & deLange (2019);Experiment 1;Orientation;1
3;4;5;28;-40;3.21773305060515;21.0989359169594;-6.90106408304061;1;Fritsche & deLange (2019);Experiment 1;Orientation;1
3;4;6;168;-10;1.90099724143556;167.327913171097;-0.672086828903474;1;Fritsche & deLange (2019);Experiment 1;Orientation;1
3;4;7;72;-10;1.96769456207676;66.4371014706461;-5.56289852935392;1;Fritsche & deLange (2019);Experiment 1;Orientation;1
3;4;8;63;50;2.11765789167339;65.8973904574098;2.89739045740976;1;Fritsche & deLange (2019);Experiment 1;Orientation;1
3;4;9;138;80;5.70113987625609;153.940097522314;15.9400975223136;1;Fritsche & deLange (2019);Experiment 1;Orientation;1
3;4;10;138;-20;2.28435969897737;125.237092703432;-12.7629072965676;1;Fritsche & deLange (2019);Experiment 1;Orientation;1
3;4;11;125;-70;2.43440308471281;140.367142345462;15.3671423454622;1;Fritsche & deLange (2019);Experiment 1;Orientation;1
3;4;12;119;-80;2.06770813936328;122.857255501656;3.8572555016556;1;Fritsche & deLange (2019);Experiment 1;Orientation;1
3;4;13;143;70;1.80100712382318;145.458775864792;2.45877586479176;1;Fritsche & deLange (2019);Experiment 1;Orientation;1
3;4;14;44;-60;2.5509689285409;35.9718678513263;-8.02813214867369;1;Fritsche & deLange (2019);Experiment 1;Orientation;1
3;4;15;16;50;3.43439018189201;15.6096955392362;-0.390304460763787;1;Fritsche & deLange (2019);Experiment 1;Orientation;1
3;4;16;25;-80;2.35102446932024;20.4348547990153;-4.56514520098469;1;Fritsche & deLange (2019);Experiment 1;Orientation;1
3;4;17;61;10;2.95104816359117;63.6343740111278;2.63437401112781;1;Fritsche & deLange (2019);Experiment 1;Orientation;1
3;4;18;73;0;3.71775049873804;70.1226992976822;-2.87730070231784;1;Fritsche & deLange (2019);Experiment 1;Orientation;1
3;4;19;171;-30;3.48475751640626;173.880267397059;2.88026739705924;1;Fritsche & deLange (2019);Experiment 1;Orientation;1
3;4;20;128;50;2.33434728001248;136.416627688985;8.41662768898465;1;Fritsche & deLange (2019);Experiment 1;Orientation;1
3;4;21;129;-20;4.80112442219524;146.182143236948;17.1821432369478;1;Fritsche & deLange (2019);Experiment 1;Orientation;1
3;4;22;88;70;2.60102512912363;82.8232535121891;-5.1767464878109;1;Fritsche & deLange (2019);Experiment 1;Orientation;1
3;4;23;136;-70;3.26768896107933;132.497967784445;-3.50203221555549;1;Fritsche & deLange (2019);Experiment 1;Orientation;1
3;4;24;7;30;4.15108118308308;12.2411949033612;5.24119490336123;1;Fritsche & deLange (2019);Experiment 1;Orientation;1
3;4;25;144;10;3.33438246952346;145.419027890264;1.4190278902642;1;Fritsche & deLange (2019);Experiment 1;Orientation;1
3;4;26;135;60;3.43449838963988;148.779306086476;13.7793060864757;1;Fritsche & deLange (2019);Experiment 1;Orientation;1
3;4;27;68;90;1.85104367692884;60.9159383103177;-7.08406168968225;1;Fritsche & deLange (2019);Experiment 1;Orientation;1
3;4;28;55;-70;3.25109182791039;57.6704438526101;2.67044385261012;1;Fritsche & deLange (2019);Experiment 1;Orientation;1
3;4;29;21;70;3.86771236210507;16.1175419593667;-4.8824580406333;1;Fritsche & deLange (2019);Experiment 1;Orientation;1
3;4;30;88;90;3.4010387357348;86.1744236969172;-1.82557630308284;1;Fritsche & deLange (2019);Experiment 1;Orientation;1
3;4;31;138;10;3.06769992847694;131.48732187101;-6.51267812898953;1;Fritsche & deLange (2019);Experiment 1;Orientation;1
3;4;32;12;60;3.5010473278403;19.2528930366558;7.25289303665582;1;Fritsche & deLange (2019);Experiment 1;Orientation;1
3;4;33;146;-50;2.16768300818694;154.806767477779;8.80676747777892;1;Fritsche & deLange (2019);Experiment 1;Orientation;1
3;4;34;37;-80;3.46775306463996;26.7984469375953;-10.2015530624047;1;Fritsche & deLange (2019);Experiment 1;Orientation;1
3;4;35;178;-80;4.90102744576643;6.25092999913882;8.2509299991388;1;Fritsche & deLange (2019);Experiment 1;Orientation;1
3;4;36;150;80;2.90093126110105;161.740381874726;11.7403818747261;1;Fritsche & deLange (2019);Experiment 1;Orientation;1
3;5;1;144;50;2.83436942008029;126.401175136347;-17.5988248636527;1;Fritsche & deLange (2019);Experiment 1;Orientation;1
3;5;2;2;-70;4.10107278158648;174.288688379535;-7.71131162046527;1;Fritsche & deLange (2019);Experiment 1;Orientation;1
3;5;3;21;20;3.18435198660882;28.2661812086949;7.26618120869488;1;Fritsche & deLange (2019);Experiment 1;Orientation;1
3;5;4;73;20;2.98436060803942;58.7532123652675;-14.2467876347325;1;Fritsche & deLange (2019);Experiment 1;Orientation;1
3;5;5;165;80;2.11770657049783;159.417598304993;-5.58240169500721;1;Fritsche & deLange (2019);Experiment 1;Orientation;1
3;5;6;3;70;2.65101974806021;2.66427626357572;-0.335723736424285;1;Fritsche & deLange (2019);Experiment 1;Orientation;1
3;5;7;6;70;3.18437955172612;6.62499424888001;0.624994248880014;1;Fritsche & deLange (2019);Experiment 1;Orientation;1
3;5;8;64;70;1.917657715725;54.7903994845424;-9.20960051545762;1;Fritsche & deLange (2019);Experiment 1;Orientation;1
3;5;9;70;30;2.16766981212004;68.1133615028782;-1.88663849712181;1;Fritsche & deLange (2019);Experiment 1;Orientation;1
3;5;10;75;-70;4.45115505173362;64.1186936148773;-10.8813063851227;1;Fritsche & deLange (2019);Experiment 1;Orientation;1
3;5;11;106;-40;3.36769286125036;113.314615113519;7.31461511351921;1;Fritsche & deLange (2019);Experiment 1;Orientation;1
3;5;12;177;50;2.96770805139022;1.30959801188145;4.30959801188146;1;Fritsche & deLange (2019);Experiment 1;Orientation;1
3;5;13;74;-60;2.43437288038149;70.9142778280932;-3.08572217190682;1;Fritsche & deLange (2019);Experiment 1;Orientation;1
3;5;14;26;-80;3.38437826144491;31.42199573712;5.42199573711998;1;Fritsche & deLange (2019);Experiment 1;Orientation;1
3;5;15;45;-60;4.28441776167165;52.2212224939562;7.22122249395616;1;Fritsche & deLange (2019);Experiment 1;Orientation;1
3;5;16;22;-20;3.13441484387477;27.072023150241;5.07202315024102;1;Fritsche & deLange (2019);Experiment 1;Orientation;1
3;5;17;169;-60;2.28457816719492;169.975985972686;0.97598597268572;1;Fritsche & deLange (2019);Experiment 1;Orientation;1
3;5;18;155;70;3.50106462935037;147.135411952983;-7.86458804701661;1;Fritsche & deLange (2019);Experiment 1;Orientation;1
3;5;19;135;-40;1.96767168889437;137.380001775553;2.38000177555307;1;Fritsche & deLange (2019);Experiment 1;Orientation;1
3;5;20;111;-20;2.56767456270427;115.790274084715;4.79027408471538;1;Fritsche & deLange (2019);Experiment 1;Orientation;1
3;5;21;61;-30;1.6676297840504;56.8633619370751;-4.13663806292489;1;Fritsche & deLange (2019);Experiment 1;Orientation;1
3;5;22;46;20;4.66777699350769;40.5387425838807;-5.4612574161193;1;Fritsche & deLange (2019);Experiment 1;Orientation;1
3;5;23;26;-10;3.05098080500102;34.2995072202034;8.29950722020336;1;Fritsche & deLange (2019);Experiment 1;Orientation;1
3;5;24;73;-30;3.55107918901103;79.9467870327674;6.94678703276738;1;Fritsche & deLange (2019);Experiment 1;Orientation;1
3;5;25;163;20;3.76773807977224;157.461491967318;-5.53850803268227;1;Fritsche & deLange (2019);Experiment 1;Orientation;1
3;5;26;133;-90;3.23437915584509;146.551212306382;13.5512123063821;1;Fritsche & deLange (2019);Experiment 1;Orientation;1
3;5;27;134;10;4.3844149171864;142.995011330862;8.99501133086224;1;Fritsche & deLange (2019);Experiment 1;Orientation;1
3;5;28;115;-60;2.56771033870791;132.848618279197;17.8486182791974;1;Fritsche & deLange (2019);Experiment 1;Orientation;1
3;5;29;70;10;2.71767806699245;74.5233855751855;4.52338557518546;1;Fritsche & deLange (2019);Experiment 1;Orientation;1
3;5;30;129;80;3.98440488817505;128.796468110927;-0.203531889073247;1;Fritsche & deLange (2019);Experiment 1;Orientation;1
3;5;31;159;0;2.7343496846288;154.429167151947;-4.57083284805339;1;Fritsche & deLange (2019);Experiment 1;Orientation;1
3;5;32;4;-60;3.46767594096036;176.314802750368;-7.68519724963176;1;Fritsche & deLange (2019);Experiment 1;Orientation;1
3;5;33;82;80;3.30107911569939;82.7399349042797;0.739934904279664;1;Fritsche & deLange (2019);Experiment 1;Orientation;1
3;5;34;6;-30;3.00107679905705;10.6368055542754;4.63680555427538;1;Fritsche & deLange (2019);Experiment 1;Orientation;1
3;5;35;11;-50;2.81769369700123;24.1348350360881;13.1348350360881;1;Fritsche & deLange (2019);Experiment 1;Orientation;1
3;5;36;67;-20;2.46768972351947;67.6816650919298;0.681665091929773;1;Fritsche & deLange (2019);Experiment 1;Orientation;1
3;6;1;83;-20;2.28433682579544;75.6168615490039;-7.38313845099607;1;Fritsche & deLange (2019);Experiment 1;Orientation;1
3;6;2;112;-10;2.68436356982329;125.863754972435;13.8637549724351;1;Fritsche & deLange (2019);Experiment 1;Orientation;1
3;6;3;123;50;3.817734751432;128.197785979925;5.19778597992484;1;Fritsche & deLange (2019);Experiment 1;Orientation;1
3;6;4;4;0;1.40098155277883;4.81590245714079;0.815902457140794;1;Fritsche & deLange (2019);Experiment 1;Orientation;1
3;6;5;51;-10;1.55099444093685;41.694472206871;-9.30552779312904;1;Fritsche & deLange (2019);Experiment 1;Orientation;1
3;6;6;38;20;2.76772283098398;39.145524632694;1.14552463269401;1;Fritsche & deLange (2019);Experiment 1;Orientation;1
3;6;7;125;-50;3.78444928560839;140.585028207927;15.5850282079273;1;Fritsche & deLange (2019);Experiment 1;Orientation;1
3;6;8;8;90;2.55101760736579;15.6588569592446;7.65885695924456;1;Fritsche & deLange (2019);Experiment 1;Orientation;1
3;6;9;164;30;3.41773674550313;164.310057182057;0.310057182057022;1;Fritsche & deLange (2019);Experiment 1;Orientation;1
3;6;10;114;60;3.80102999700648;134.456117708585;20.4561177085847;1;Fritsche & deLange (2019);Experiment 1;Orientation;1
3;6;11;140;-10;3.08438738139375;145.511983872731;5.51198387273112;1;Fritsche & deLange (2019);Experiment 1;Orientation;1
3;6;12;48;-80;2.65100449927195;48.4513950943033;0.451395094303294;1;Fritsche & deLange (2019);Experiment 1;Orientation;1
3;6;13;32;70;1.60102483587707;34.2365509242124;2.23655092421239;1;Fritsche & deLange (2019);Experiment 1;Orientation;1
3;6;14;24;30;2.58438870099963;30.0857887173194;6.08578871731936;1;Fritsche & deLange (2019);Experiment 1;Orientation;1
3;6;15;21;-70;1.83434859961926;30.1727940324127;9.17279403241274;1;Fritsche & deLange (2019);Experiment 1;Orientation;1
3;6;16;123;40;4.03440859773673;128.545902425746;5.54590242574568;1;Fritsche & deLange (2019);Experiment 1;Orientation;1
3;6;17;76;40;3.10102498250035;77.1205217950908;1.12052179509082;1;Fritsche & deLange (2019);Experiment 1;Orientation;1
3;6;18;73;-50;2.16768682038401;75.3984385017421;2.39843850174212;1;Fritsche & deLange (2019);Experiment 1;Orientation;1
3;6;19;88;20;2.98431574141159;85.8069213877738;-2.19307861222619;1;Fritsche & deLange (2019);Experiment 1;Orientation;1
3;6;20;50;-70;2.53440053347276;68.2478304237782;18.2478304237782;1;Fritsche & deLange (2019);Experiment 1;Orientation;1
3;6;21;71;90;2.76767943058712;80.0792800405962;9.07928004059623;1;Fritsche & deLange (2019);Experiment 1;Orientation;1
3;6;22;132;10;2.80104641877824;130.842729066044;-1.15727093395572;1;Fritsche & deLange (2019);Experiment 1;Orientation;1
3;6;23;129;-20;3.58441978506835;141.184641365992;12.184641365992;1;Fritsche & deLange (2019);Experiment 1;Orientation;1
3;6;24;7;70;2.88469863262344;16.7729757233422;9.77297572334223;1;Fritsche & deLange (2019);Experiment 1;Orientation;1
3;6;25;59;70;2.0343253158926;65.2787566358143;6.27875663581429;1;Fritsche & deLange (2019);Experiment 1;Orientation;1
3;6;26;156;-30;3.51768492894735;160.533022882914;4.53302288291351;1;Fritsche & deLange (2019);Experiment 1;Orientation;1
3;6;27;178;80;1.80100331162612;2.49304250628207;4.49304250628205;1;Fritsche & deLange (2019);Experiment 1;Orientation;1
3;6;28;96;70;2.83432601968252;98.4344257960886;2.43442579608856;1;Fritsche & deLange (2019);Experiment 1;Orientation;1
3;6;29;71;50;3.93434370241175;59.1828823136774;-11.8171176863226;1;Fritsche & deLange (2019);Experiment 1;Orientation;1
3;6;30;123;80;3.23430965655916;117.662151147433;-5.33784885256669;1;Fritsche & deLange (2019);Experiment 1;Orientation;1
3;6;31;159;-80;3.10107278158739;155.323193876869;-3.67680612313075;1;Fritsche & deLange (2019);Experiment 1;Orientation;1
3;6;32;58;-60;2.65102473324168;53.7940075482414;-4.20599245175863;1;Fritsche & deLange (2019);Experiment 1;Orientation;1
3;6;33;99;10;3.48440239558477;99.7448850860727;0.744885086072685;1;Fritsche & deLange (2019);Experiment 1;Orientation;1
3;6;34;167;50;3.66772332950222;156.842436872466;-10.1575631275342;1;Fritsche & deLange (2019);Experiment 1;Orientation;1
3;6;35;103;40;1.8676337721954;108.149810957771;5.1498109577706;1;Fritsche & deLange (2019);Experiment 1;Orientation;1
3;6;36;78;40;1.91773190694585;74.697775385509;-3.30222461449098;1;Fritsche & deLange (2019);Experiment 1;Orientation;1
3;7;1;161;60;2.76774013249451;152.538002078888;-8.46199792111173;1;Fritsche & deLange (2019);Experiment 1;Orientation;1
3;7;2;172;40;3.08464162561449;167.698766723318;-4.30123327668153;1;Fritsche & deLange (2019);Experiment 1;Orientation;1
3;7;3;31;-40;1.85100174276067;25.3018059711354;-5.69819402886456;1;Fritsche & deLange (2019);Experiment 1;Orientation;1
3;7;4;75;70;2.43437962503776;63.5862207349302;-11.4137792650698;1;Fritsche & deLange (2019);Experiment 1;Orientation;1
3;7;5;50;-60;4.05101012959403;40.91748588991;-9.08251411009004;1;Fritsche & deLange (2019);Experiment 1;Orientation;1
3;7;6;141;-20;2.88433794012872;154.501717758495;13.5017177584948;1;Fritsche & deLange (2019);Experiment 1;Orientation;1
3;7;7;44;-10;3.25104842751261;37.6188095451767;-6.38119045482329;1;Fritsche & deLange (2019);Experiment 1;Orientation;1
3;7;8;61;-60;2.86770767016969;62.5989525216342;1.59895252163422;1;Fritsche & deLange (2019);Experiment 1;Orientation;1
3;7;9;57;0;3.90106380826182;57.9149272356654;0.914927235665417;1;Fritsche & deLange (2019);Experiment 1;Orientation;1
3;7;10;180;-60;2.56770300755943;6.94919422567025;6.94919422567025;1;Fritsche & deLange (2019);Experiment 1;Orientation;1
3;7;11;70;0;3.20107228306915;66.8003706625817;-3.19962933741833;1;Fritsche & deLange (2019);Experiment 1;Orientation;1
3;7;12;3;40;2.73438634036938;5.58256287529872;2.58256287529872;1;Fritsche & deLange (2019);Experiment 1;Orientation;1
3;7;13;114;0;4.1844206061578;116.585576570438;2.58557657043815;1;Fritsche & deLange (2019);Experiment 1;Orientation;1
3;7;14;62;-80;3.53432370303926;54.0151315975059;-7.98486840249412;1;Fritsche & deLange (2019);Experiment 1;Orientation;1
3;7;15;53;-80;2.51768991412882;60.0424623549104;7.04246235491041;1;Fritsche & deLange (2019);Experiment 1;Orientation;1
3;7;16;101;0;3.95135636506348;103.481429249766;2.48142924976614;1;Fritsche & deLange (2019);Experiment 1;Orientation;1
3;7;17;108;-30;3.60103656571482;111.889915500118;3.88991550011794;1;Fritsche & deLange (2019);Experiment 1;Orientation;1
3;7;18;153;-50;2.56771092519921;161.222621747371;8.22262174737077;1;Fritsche & deLange (2019);Experiment 1;Orientation;1
3;7;19;79;60;2.58436201562017;66.5382708401247;-12.4617291598753;1;Fritsche & deLange (2019);Experiment 1;Orientation;1
3;7;20;142;0;2.95103027558889;153.285802485861;11.2858024858609;1;Fritsche & deLange (2019);Experiment 1;Orientation;1
3;7;21;172;-70;3.78439972704655;176.949712573557;4.94971257355746;1;Fritsche & deLange (2019);Experiment 1;Orientation;1
3;7;22;21;-60;2.41766753946467;33.9985349739923;12.9985349739923;1;Fritsche & deLange (2019);Experiment 1;Orientation;1
3;7;23;90;50;3.23436332056463;78.0791427672321;-11.9208572327679;1;Fritsche & deLange (2019);Experiment 1;Orientation;1
3;7;24;118;30;3.03437252848653;117.365458846624;-0.634541153376404;1;Fritsche & deLange (2019);Experiment 1;Orientation;1
3;7;25;40;90;3.1843725138242;48.3492047174178;8.34920471741779;1;Fritsche & deLange (2019);Experiment 1;Orientation;1
3;7;26;60;80;3.81773357844759;50.8576871858689;-9.14231281413114;1;Fritsche & deLange (2019);Experiment 1;Orientation;1
3;7;27;122;20;1.60100518839954;130.085537349253;8.08553734925312;1;Fritsche & deLange (2019);Experiment 1;Orientation;1
3;7;28;7;-20;1.50103178580594;8.20418894097418;1.20418894097418;1;Fritsche & deLange (2019);Experiment 1;Orientation;1
3;7;29;51;-70;1.68434890752724;44.4524337084131;-6.54756629158695;1;Fritsche & deLange (2019);Experiment 1;Orientation;1
3;7;30;98;-30;3.00106976115421;99.2570195688735;1.25701956887347;1;Fritsche & deLange (2019);Experiment 1;Orientation;1
3;7;31;75;-20;1.46766421112261;64.5984834866021;-10.4015165133979;1;Fritsche & deLange (2019);Experiment 1;Orientation;1
3;7;32;97;-60;2.83430519922058;100.580066777155;3.58006677715525;1;Fritsche & deLange (2019);Experiment 1;Orientation;1
3;7;33;37;40;3.0343270753674;42.8199812477692;5.81998124776924;1;Fritsche & deLange (2019);Experiment 1;Orientation;1
3;7;34;137;-90;3.36773479541898;150.924538064076;13.924538064076;1;Fritsche & deLange (2019);Experiment 1;Orientation;1
3;7;35;176;30;3.71771179027473;173.27521220574;-2.72478779425981;1;Fritsche & deLange (2019);Experiment 1;Orientation;1
3;7;36;142;20;2.66770544150131;152.041916546779;10.0419165467787;1;Fritsche & deLange (2019);Experiment 1;Orientation;1
3;8;1;80;40;2.01765017930575;62.7152092112607;-17.2847907887393;1;Fritsche & deLange (2019);Experiment 1;Orientation;1
3;8;2;5;30;2.78437919983116;7.2129577898404;2.2129577898404;1;Fritsche & deLange (2019);Experiment 1;Orientation;1
3;8;3;37;-40;3.23440261551877;33.9837909892628;-3.01620901073719;1;Fritsche & deLange (2019);Experiment 1;Orientation;1
3;8;4;95;-50;3.30106650612379;96.7233405822035;1.72334058220349;1;Fritsche & deLange (2019);Experiment 1;Orientation;1
3;8;5;150;80;2.28434591641872;152.917562457652;2.91756245765194;1;Fritsche & deLange (2019);Experiment 1;Orientation;1
