obs;theta;resp;error;rt;block;delta;trial;study;experiment;stimulus;expnum
1;70;65;-5;1.92432129999997;1;NaN;1;Houborg et al. (2023);Experiment 1;Orientation;1
1;157;165;8;6.01526579999972;1;-87;2;Houborg et al. (2023);Experiment 1;Orientation;1
1;50;33;-17;2.62793820000024;1;-73;3;Houborg et al. (2023);Experiment 1;Orientation;1
1;4;15;11;2.76206180000008;1;46;4;Houborg et al. (2023);Experiment 1;Orientation;1
1;114;143;29;2.95987319999949;1;70;5;Houborg et al. (2023);Experiment 1;Orientation;1
1;160;145;-15;2.39549819999957;1;-46;6;Houborg et al. (2023);Experiment 1;Orientation;1
1;37;39;2;1.96204790000047;1;-57;7;Houborg et al. (2023);Experiment 1;Orientation;1
1;50;48;-2;1.7630165999999;1;-13;8;Houborg et al. (2023);Experiment 1;Orientation;1
1;57;61;4;1.86147810000057;1;-7;9;Houborg et al. (2023);Experiment 1;Orientation;1
1;107;131;24;4.84751229999983;1;-50;10;Houborg et al. (2023);Experiment 1;Orientation;1
1;122;126;4;2.1457575000004;1;-15;11;Houborg et al. (2023);Experiment 1;Orientation;1
1;102;125;23;1.69614619999993;1;20;12;Houborg et al. (2023);Experiment 1;Orientation;1
1;27;29;2;1.79561339999964;1;75;13;Houborg et al. (2023);Experiment 1;Orientation;1
1;70;64;-6;1.71252840000034;1;-43;14;Houborg et al. (2023);Experiment 1;Orientation;1
1;159;147;-12;2.46188350000011;1;-89;15;Houborg et al. (2023);Experiment 1;Orientation;1
1;22;26;4;4.69766609999988;1;-43;16;Houborg et al. (2023);Experiment 1;Orientation;1
1;78;28;-50;3.38065490000008;1;-56;17;Houborg et al. (2023);Experiment 1;Orientation;1
1;102;161;59;3.26378980000027;1;-24;18;Houborg et al. (2023);Experiment 1;Orientation;1
1;134;141;7;3.14588579999963;1;-32;19;Houborg et al. (2023);Experiment 1;Orientation;1
1;121;119;-2;2.77894380000089;1;13;20;Houborg et al. (2023);Experiment 1;Orientation;1
1;130;132;2;2.96302490000016;2;-9;21;Houborg et al. (2023);Experiment 1;Orientation;1
1;15;16;1;3.14692749999995;2;-65;22;Houborg et al. (2023);Experiment 1;Orientation;1
1;165;154;-11;2.3630876999996;2;30;23;Houborg et al. (2023);Experiment 1;Orientation;1
1;41;25;-16;3.84601639999983;2;-56;24;Houborg et al. (2023);Experiment 1;Orientation;1
1;90;91;1;2.49602030000005;2;-49;25;Houborg et al. (2023);Experiment 1;Orientation;1
1;21;33;12;3.81195230000048;2;69;26;Houborg et al. (2023);Experiment 1;Orientation;1
1;63;24;-39;4.6973011;2;-42;27;Houborg et al. (2023);Experiment 1;Orientation;1
1;114;126;12;2.84545030000027;2;-51;28;Houborg et al. (2023);Experiment 1;Orientation;1
1;106;114;8;1.91230259999975;2;8;29;Houborg et al. (2023);Experiment 1;Orientation;1
1;70;82;12;3.51207189999968;2;36;30;Houborg et al. (2023);Experiment 1;Orientation;1
1;27;32;5;4.26438169999983;2;43;31;Houborg et al. (2023);Experiment 1;Orientation;1
1;147;148;1;4.5808063000004;2;60;32;Houborg et al. (2023);Experiment 1;Orientation;1
1;130;130;0;2.8115399999997;2;17;33;Houborg et al. (2023);Experiment 1;Orientation;1
1;145;147;2;2.44500619999963;2;-15;34;Houborg et al. (2023);Experiment 1;Orientation;1
1;93;90;-3;8.50132460000077;2;52;35;Houborg et al. (2023);Experiment 1;Orientation;1
1;26;22;-4;3.46320539999942;2;67;36;Houborg et al. (2023);Experiment 1;Orientation;1
1;96;112;16;2.41006039999957;2;-70;37;Houborg et al. (2023);Experiment 1;Orientation;1
1;86;98;12;4.08014259999982;2;10;38;Houborg et al. (2023);Experiment 1;Orientation;1
1;86;57;-29;10.1190803;2;0;39;Houborg et al. (2023);Experiment 1;Orientation;1
1;71;95;24;4.24682469999971;2;15;40;Houborg et al. (2023);Experiment 1;Orientation;1
1;40;45;5;2.71051890000035;3;31;41;Houborg et al. (2023);Experiment 1;Orientation;1
1;161;153;-8;2.61263589999999;3;59;42;Houborg et al. (2023);Experiment 1;Orientation;1
1;162;160;-2;2.21269279999979;3;-1;43;Houborg et al. (2023);Experiment 1;Orientation;1
1;2;10;8;3.5306086999999;3;-20;44;Houborg et al. (2023);Experiment 1;Orientation;1
1;58;0;-58;3.27958050000052;3;-56;45;Houborg et al. (2023);Experiment 1;Orientation;1
1;139;142;3;6.91566650000004;3;-81;46;Houborg et al. (2023);Experiment 1;Orientation;1
1;145;137;-8;2.31178379999983;3;-6;47;Houborg et al. (2023);Experiment 1;Orientation;1
1;44;52;8;2.89645759999985;3;-79;48;Houborg et al. (2023);Experiment 1;Orientation;1
1;155;156;1;2.83029090000036;3;69;49;Houborg et al. (2023);Experiment 1;Orientation;1
1;127;139;12;3.31317409999974;3;28;50;Houborg et al. (2023);Experiment 1;Orientation;1
1;111;133;22;18.6421958999999;3;16;51;Houborg et al. (2023);Experiment 1;Orientation;1
1;169;153;-16;2.67827540000053;3;-58;52;Houborg et al. (2023);Experiment 1;Orientation;1
1;140;173;33;1.96104300000025;3;29;53;Houborg et al. (2023);Experiment 1;Orientation;1
1;36;48;12;2.27899950000028;3;-76;54;Houborg et al. (2023);Experiment 1;Orientation;1
1;112;127;15;3.81424800000059;3;-76;55;Houborg et al. (2023);Experiment 1;Orientation;1
1;136;150;14;2.29590250000001;3;-24;56;Houborg et al. (2023);Experiment 1;Orientation;1
1;17;24;7;3.46268930000042;3;-61;57;Houborg et al. (2023);Experiment 1;Orientation;1
1;17;26;9;3.44454649999989;3;0;58;Houborg et al. (2023);Experiment 1;Orientation;1
1;166;165;-1;4.28040400000009;3;31;59;Houborg et al. (2023);Experiment 1;Orientation;1
1;48;47;-1;4.36459449999984;3;-62;60;Houborg et al. (2023);Experiment 1;Orientation;1
1;55;46;-9;2.24541190000036;4;-7;61;Houborg et al. (2023);Experiment 1;Orientation;1
1;18;24;6;2.93005369999992;4;37;62;Houborg et al. (2023);Experiment 1;Orientation;1
1;16;20;4;2.94558069999948;4;2;63;Houborg et al. (2023);Experiment 1;Orientation;1
1;59;35;-24;2.4948846999996;4;-43;64;Houborg et al. (2023);Experiment 1;Orientation;1
1;61;50;-11;3.78028830000039;4;-2;65;Houborg et al. (2023);Experiment 1;Orientation;1
1;148;145;-3;2.56176159999995;4;-87;66;Houborg et al. (2023);Experiment 1;Orientation;1
1;83;121;38;3.19650970000021;4;65;67;Houborg et al. (2023);Experiment 1;Orientation;1
1;38;37;-1;2.96349090000058;4;45;68;Houborg et al. (2023);Experiment 1;Orientation;1
1;52;47;-5;3.06166310000026;4;-14;69;Houborg et al. (2023);Experiment 1;Orientation;1
1;48;38;-10;3.77967010000066;4;4;70;Houborg et al. (2023);Experiment 1;Orientation;1
1;128;126;-2;3.11312989999988;4;-80;71;Houborg et al. (2023);Experiment 1;Orientation;1
1;21;31;10;28.9838921;4;-73;72;Houborg et al. (2023);Experiment 1;Orientation;1
1;149;146;-3;2.61306539999987;4;52;73;Houborg et al. (2023);Experiment 1;Orientation;1
1;178;1;3;2.69586319999962;4;-29;74;Houborg et al. (2023);Experiment 1;Orientation;1
1;27;39;12;2.89652139999998;4;-29;75;Houborg et al. (2023);Experiment 1;Orientation;1
1;1;44;43;6.48259289999987;4;26;76;Houborg et al. (2023);Experiment 1;Orientation;1
1;9;4;-5;3.41187690000061;4;-8;77;Houborg et al. (2023);Experiment 1;Orientation;1
1;106;120;14;3.88009559999955;4;83;78;Houborg et al. (2023);Experiment 1;Orientation;1
1;5;0;-5;2.61224279999988;4;-79;79;Houborg et al. (2023);Experiment 1;Orientation;1
1;81;44;-37;5.44877540000016;4;-76;80;Houborg et al. (2023);Experiment 1;Orientation;1
1;152;145;-7;3.02877960000023;5;-71;81;Houborg et al. (2023);Experiment 1;Orientation;1
1;129;130;1;2.77972640000007;5;23;82;Houborg et al. (2023);Experiment 1;Orientation;1
1;136;133;-3;3.28017949999958;5;-7;83;Houborg et al. (2023);Experiment 1;Orientation;1
1;121;109;-12;4.36420729999918;5;15;84;Houborg et al. (2023);Experiment 1;Orientation;1
1;178;177;-1;6.79989260000002;5;-57;85;Houborg et al. (2023);Experiment 1;Orientation;1
1;148;145;-3;2.91273329999967;5;30;86;Houborg et al. (2023);Experiment 1;Orientation;1
1;25;35;10;1.52835449999839;5;-57;87;Houborg et al. (2023);Experiment 1;Orientation;1
1;122;141;19;20.0945076999997;5;83;88;Houborg et al. (2023);Experiment 1;Orientation;1
1;120;136;16;1.52918349999891;5;2;89;Houborg et al. (2023);Experiment 1;Orientation;1
1;174;152;-22;78.7411147000003;5;-54;90;Houborg et al. (2023);Experiment 1;Orientation;1
1;89;95;6;1.07760280000002;5;85;91;Houborg et al. (2023);Experiment 1;Orientation;1
1;138;134;-4;1.94536940000035;5;-49;92;Houborg et al. (2023);Experiment 1;Orientation;1
1;62;62;0;2.5948204999986;5;76;93;Houborg et al. (2023);Experiment 1;Orientation;1
1;63;122;59;2.59452060000149;5;-1;94;Houborg et al. (2023);Experiment 1;Orientation;1
1;23;19;-4;2.44603169999937;5;40;95;Houborg et al. (2023);Experiment 1;Orientation;1
1;51;49;-2;3.21307250000064;5;-28;96;Houborg et al. (2023);Experiment 1;Orientation;1
1;50;34;-16;22.1608367999997;5;1;97;Houborg et al. (2023);Experiment 1;Orientation;1
1;4;177;-7;1.8283322999996;5;46;98;Houborg et al. (2023);Experiment 1;Orientation;1
1;42;42;0;5.99812620000012;5;-38;99;Houborg et al. (2023);Experiment 1;Orientation;1
1;4;19;15;8.50102020000122;5;38;100;Houborg et al. (2023);Experiment 1;Orientation;1
1;164;159;-5;2.5960369000004;6;20;101;Houborg et al. (2023);Experiment 1;Orientation;1
1;13;17;4;1.37777020000067;6;-29;102;Houborg et al. (2023);Experiment 1;Orientation;1
1;124;129;5;2.92881639999905;6;69;103;Houborg et al. (2023);Experiment 1;Orientation;1
1;21;41;20;2.39627690000088;6;-77;104;Houborg et al. (2023);Experiment 1;Orientation;1
1;141;139;-2;3.09516480000093;6;60;105;Houborg et al. (2023);Experiment 1;Orientation;1
1;114;118;4;2.22825889999876;6;27;106;Houborg et al. (2023);Experiment 1;Orientation;1
1;128;123;-5;1.79431750000003;6;-14;107;Houborg et al. (2023);Experiment 1;Orientation;1
1;73;64;-9;2.54504019999877;6;55;108;Houborg et al. (2023);Experiment 1;Orientation;1
1;129;134;5;4.36372959999971;6;-56;109;Houborg et al. (2023);Experiment 1;Orientation;1
1;113;140;27;2.52813720000086;6;16;110;Houborg et al. (2023);Experiment 1;Orientation;1
1;122;146;24;6.53205709999929;6;-9;111;Houborg et al. (2023);Experiment 1;Orientation;1
1;87;126;39;1.67764519999946;6;35;112;Houborg et al. (2023);Experiment 1;Orientation;1
1;101;108;7;2.8128772;6;-14;113;Houborg et al. (2023);Experiment 1;Orientation;1
1;57;41;-16;2.91284590000032;6;44;114;Houborg et al. (2023);Experiment 1;Orientation;1
1;122;134;12;4.8311563999996;6;-65;115;Houborg et al. (2023);Experiment 1;Orientation;1
1;15;18;3;2.82927179999933;6;-73;116;Houborg et al. (2023);Experiment 1;Orientation;1
1;10;30;20;2.91292229999999;6;5;117;Houborg et al. (2023);Experiment 1;Orientation;1
1;142;146;4;3.61323119999906;6;48;118;Houborg et al. (2023);Experiment 1;Orientation;1
1;110;148;38;5.0987669999995;6;32;119;Houborg et al. (2023);Experiment 1;Orientation;1
1;14;25;11;2.41230499999983;6;-84;120;Houborg et al. (2023);Experiment 1;Orientation;1
1;145;150;5;2.04470060000131;7;49;121;Houborg et al. (2023);Experiment 1;Orientation;1
1;98;106;8;1.7949865999999;7;47;122;Houborg et al. (2023);Experiment 1;Orientation;1
1;56;43;-13;2.36265300000014;7;42;123;Houborg et al. (2023);Experiment 1;Orientation;1
1;126;134;8;1.87940359999993;7;-70;124;Houborg et al. (2023);Experiment 1;Orientation;1
1;83;89;6;1.91152870000042;7;43;125;Houborg et al. (2023);Experiment 1;Orientation;1
1;46;41;-5;19.0761140999984;7;37;126;Houborg et al. (2023);Experiment 1;Orientation;1
1;90;94;4;1.56078259999958;7;-44;127;Houborg et al. (2023);Experiment 1;Orientation;1
1;7;30;23;1.99480260000018;7;83;128;Houborg et al. (2023);Experiment 1;Orientation;1
1;90;92;2;5.84766239999954;7;-83;129;Houborg et al. (2023);Experiment 1;Orientation;1
1;118;141;23;2.78030990000116;7;-28;130;Houborg et al. (2023);Experiment 1;Orientation;1
1;36;49;13;2.97981360000085;7;82;131;Houborg et al. (2023);Experiment 1;Orientation;1
1;123;131;8;3.41415469999993;7;-87;132;Houborg et al. (2023);Experiment 1;Orientation;1
1;162;140;-22;2.24576750000051;7;-39;133;Houborg et al. (2023);Experiment 1;Orientation;1
1;100;101;1;3.61314000000129;7;62;134;Houborg et al. (2023);Experiment 1;Orientation;1
1;104;120;16;3.96308929999941;7;-4;135;Houborg et al. (2023);Experiment 1;Orientation;1
1;22;143;-59;7.24872429999959;7;82;136;Houborg et al. (2023);Experiment 1;Orientation;1
1;57;43;-14;3.16376889999992;7;-35;137;Houborg et al. (2023);Experiment 1;Orientation;1
1;145;153;8;2.22806589999891;7;-88;138;Houborg et al. (2023);Experiment 1;Orientation;1
1;12;3;-9;3.62970660000065;7;-47;139;Houborg et al. (2023);Experiment 1;Orientation;1
1;164;159;-5;2.24529509999957;7;28;140;Houborg et al. (2023);Experiment 1;Orientation;1
1;132;137;5;2.62871919999998;8;32;141;Houborg et al. (2023);Experiment 1;Orientation;1
1;135;129;-6;2.79676319999999;8;-3;142;Houborg et al. (2023);Experiment 1;Orientation;1
1;84;85;1;1.59482309999839;8;51;143;Houborg et al. (2023);Experiment 1;Orientation;1
1;148;142;-6;2.44613219999883;8;-64;144;Houborg et al. (2023);Experiment 1;Orientation;1
1;60;28;-32;2.84598560000086;8;88;145;Houborg et al. (2023);Experiment 1;Orientation;1
1;27;29;2;2.41251220000049;8;33;146;Houborg et al. (2023);Experiment 1;Orientation;1
1;32;38;6;2.64521799999966;8;-5;147;Houborg et al. (2023);Experiment 1;Orientation;1
1;118;117;-1;5.64692880000075;8;-86;148;Houborg et al. (2023);Experiment 1;Orientation;1
1;67;77;10;2.2791073999997;8;51;149;Houborg et al. (2023);Experiment 1;Orientation;1
1;33;65;32;2.26317949999975;8;34;150;Houborg et al. (2023);Experiment 1;Orientation;1
1;50;54;4;2.32776080000076;8;-17;151;Houborg et al. (2023);Experiment 1;Orientation;1
1;29;33;4;2.46132029999899;8;21;152;Houborg et al. (2023);Experiment 1;Orientation;1
1;165;156;-9;3.76213430000098;8;44;153;Houborg et al. (2023);Experiment 1;Orientation;1
1;93;92;-1;1.79432789999919;8;72;154;Houborg et al. (2023);Experiment 1;Orientation;1
1;179;179;0;4.21335730000101;8;-86;155;Houborg et al. (2023);Experiment 1;Orientation;1
1;89;68;-21;2.99612589999924;8;90;156;Houborg et al. (2023);Experiment 1;Orientation;1
1;70;42;-28;3.51336690000062;8;19;157;Houborg et al. (2023);Experiment 1;Orientation;1
1;7;19;12;2.71152540000003;8;63;158;Houborg et al. (2023);Experiment 1;Orientation;1
1;128;155;27;2.71270460000051;8;59;159;Houborg et al. (2023);Experiment 1;Orientation;1
1;68;36;-32;2.64591370000016;8;60;160;Houborg et al. (2023);Experiment 1;Orientation;1
1;120;37;-83;4.87963330000093;9;-52;161;Houborg et al. (2023);Experiment 1;Orientation;1
1;101;116;15;2.52910960000008;9;19;162;Houborg et al. (2023);Experiment 1;Orientation;1
1;15;26;11;1.37725169999976;9;86;163;Houborg et al. (2023);Experiment 1;Orientation;1
1;115;123;8;1.97813730000053;9;80;164;Houborg et al. (2023);Experiment 1;Orientation;1
1;149;142;-7;2.37933909999992;9;-34;165;Houborg et al. (2023);Experiment 1;Orientation;1
1;138;134;-4;2.12859360000039;9;11;166;Houborg et al. (2023);Experiment 1;Orientation;1
1;66;65;-1;2.54598579999947;9;72;167;Houborg et al. (2023);Experiment 1;Orientation;1
1;102;102;0;2.69432219999908;9;-36;168;Houborg et al. (2023);Experiment 1;Orientation;1
1;163;157;-6;6.18135540000003;9;-61;169;Houborg et al. (2023);Experiment 1;Orientation;1
1;6;16;10;2.36189510000077;9;-23;170;Houborg et al. (2023);Experiment 1;Orientation;1
1;144;16;52;14.9216147000006;9;42;171;Houborg et al. (2023);Experiment 1;Orientation;1
1;180;173;-7;1.69610330000069;9;-36;172;Houborg et al. (2023);Experiment 1;Orientation;1
1;45;48;3;4.01448879999953;9;-45;173;Houborg et al. (2023);Experiment 1;Orientation;1
1;96;110;14;5.83063070000026;9;-51;174;Houborg et al. (2023);Experiment 1;Orientation;1
1;111;109;-2;3.07791320000069;9;-15;175;Houborg et al. (2023);Experiment 1;Orientation;1
1;159;149;-10;3.97958189999918;9;-48;176;Houborg et al. (2023);Experiment 1;Orientation;1
1;43;33;-10;3.54551390000051;9;-64;177;Houborg et al. (2023);Experiment 1;Orientation;1
1;70;48;-22;4.38054179999926;9;-27;178;Houborg et al. (2023);Experiment 1;Orientation;1
1;31;30;-1;3.08011429999897;9;39;179;Houborg et al. (2023);Experiment 1;Orientation;1
1;67;38;-29;2.52813760000026;9;-36;180;Houborg et al. (2023);Experiment 1;Orientation;1
1;12;37;25;7.38297690000036;10;55;181;Houborg et al. (2023);Experiment 1;Orientation;1
1;34;37;3;2.34370839999974;10;-22;182;Houborg et al. (2023);Experiment 1;Orientation;1
1;62;65;3;2.07920269999886;10;-28;183;Houborg et al. (2023);Experiment 1;Orientation;1
1;132;128;-4;1.96283089999997;10;-70;184;Houborg et al. (2023);Experiment 1;Orientation;1
1;148;137;-11;2.27974060000088;10;-16;185;Houborg et al. (2023);Experiment 1;Orientation;1
1;142;134;-8;2.83008370000061;10;6;186;Houborg et al. (2023);Experiment 1;Orientation;1
1;78;44;-34;4.11307970000053;10;64;187;Houborg et al. (2023);Experiment 1;Orientation;1
1;12;148;-44;4.6809118000001;10;66;188;Houborg et al. (2023);Experiment 1;Orientation;1
1;112;109;-3;2.11032290000003;10;80;189;Houborg et al. (2023);Experiment 1;Orientation;1
1;161;157;-4;4.41335489999983;10;-49;190;Houborg et al. (2023);Experiment 1;Orientation;1
1;43;43;0;2.19518770000104;10;-62;191;Houborg et al. (2023);Experiment 1;Orientation;1
1;49;32;-17;3.24695379999866;10;-6;192;Houborg et al. (2023);Experiment 1;Orientation;1
1;43;45;2;2.21147459999884;10;6;193;Houborg et al. (2023);Experiment 1;Orientation;1
1;16;29;13;2.19517189999897;10;27;194;Houborg et al. (2023);Experiment 1;Orientation;1
1;164;9;25;3.72982550000052;10;32;195;Houborg et al. (2023);Experiment 1;Orientation;1
1;89;83;-6;2.6453591999998;10;75;196;Houborg et al. (2023);Experiment 1;Orientation;1
1;11;17;6;4.29780380000011;10;78;197;Houborg et al. (2023);Experiment 1;Orientation;1
1;176;4;8;2.91136050000023;10;15;198;Houborg et al. (2023);Experiment 1;Orientation;1
1;91;86;-5;3.14694039999995;10;85;199;Houborg et al. (2023);Experiment 1;Orientation;1
1;40;37;-3;2.76291449999917;10;51;200;Houborg et al. (2023);Experiment 1;Orientation;1
2;36;22;-14;8.33285770000657;1;NaN;1;Houborg et al. (2023);Experiment 1;Orientation;1
2;72;60;-12;2.3158548999927;1;-36;2;Houborg et al. (2023);Experiment 1;Orientation;1
2;120;117;-3;2.14984960001311;1;-48;3;Houborg et al. (2023);Experiment 1;Orientation;1
2;15;34;19;2.16632419999223;1;-75;4;Houborg et al. (2023);Experiment 1;Orientation;1
2;171;163;-8;1.28317119998974;1;24;5;Houborg et al. (2023);Experiment 1;Orientation;1
2;71;70;-1;2.8007282000035;1;-80;6;Houborg et al. (2023);Experiment 1;Orientation;1
2;42;41;-1;2.68344090000028;1;29;7;Houborg et al. (2023);Experiment 1;Orientation;1
2;74;69;-5;3.0999232000031;1;-32;8;Houborg et al. (2023);Experiment 1;Orientation;1
2;98;117;19;3.81658909999533;1;-24;9;Houborg et al. (2023);Experiment 1;Orientation;1
2;13;39;26;3.76611629998661;1;85;10;Houborg et al. (2023);Experiment 1;Orientation;1
2;22;25;3;1.21793259997503;1;-9;11;Houborg et al. (2023);Experiment 1;Orientation;1
2;75;74;-1;2.66526760000852;1;-53;12;Houborg et al. (2023);Experiment 1;Orientation;1
2;37;41;4;3.08518920000643;1;38;13;Houborg et al. (2023);Experiment 1;Orientation;1
2;122;125;3;1.8823304999969;1;-85;14;Houborg et al. (2023);Experiment 1;Orientation;1
2;97;109;12;2.28341380000347;1;25;15;Houborg et al. (2023);Experiment 1;Orientation;1
2;11;18;7;4.74998039999628;1;86;16;Houborg et al. (2023);Experiment 1;Orientation;1
2;111;115;4;2.21669719999772;1;80;17;Houborg et al. (2023);Experiment 1;Orientation;1
2;1;4;3;4.96549760000198;1;-70;18;Houborg et al. (2023);Experiment 1;Orientation;1
2;78;100;22;3.516529000015;1;-77;19;Houborg et al. (2023);Experiment 1;Orientation;1
2;180;171;-9;4.16741140000522;1;78;20;Houborg et al. (2023);Experiment 1;Orientation;1
2;5;11;6;1.90033520001452;2;-5;21;Houborg et al. (2023);Experiment 1;Orientation;1
2;53;44;-9;2.81569049999234;2;-48;22;Houborg et al. (2023);Experiment 1;Orientation;1
2;123;125;2;3.5172836999991;2;-70;23;Houborg et al. (2023);Experiment 1;Orientation;1
2;66;51;-15;2.95004110000446;2;57;24;Houborg et al. (2023);Experiment 1;Orientation;1
2;100;67;-33;5.26807140000165;2;-34;25;Houborg et al. (2023);Experiment 1;Orientation;1
2;55;62;7;2.99994100001641;2;45;26;Houborg et al. (2023);Experiment 1;Orientation;1
2;114;124;10;2.79979399999138;2;-59;27;Houborg et al. (2023);Experiment 1;Orientation;1
2;9;10;1;3.09856189999846;2;-75;28;Houborg et al. (2023);Experiment 1;Orientation;1
2;157;154;-3;1.7833135999972;2;32;29;Houborg et al. (2023);Experiment 1;Orientation;1
2;170;163;-7;3.53467430002638;2;-13;30;Houborg et al. (2023);Experiment 1;Orientation;1
2;60;69;9;3.86804940001457;2;-70;31;Houborg et al. (2023);Experiment 1;Orientation;1
2;27;45;18;2.43459200000507;2;33;32;Houborg et al. (2023);Experiment 1;Orientation;1
2;55;34;-21;3.93413799998234;2;-28;33;Houborg et al. (2023);Experiment 1;Orientation;1
2;137;130;-7;1.93445279999287;2;-82;34;Houborg et al. (2023);Experiment 1;Orientation;1
2;42;49;7;2.25035040001967;2;-85;35;Houborg et al. (2023);Experiment 1;Orientation;1
2;31;41;10;4.40079829999013;2;11;36;Houborg et al. (2023);Experiment 1;Orientation;1
2;4;15;11;5.4999066000164;2;27;37;Houborg et al. (2023);Experiment 1;Orientation;1
2;152;150;-2;1.48403240001062;2;32;38;Houborg et al. (2023);Experiment 1;Orientation;1
2;26;33;7;4.51504289999139;2;-54;39;Houborg et al. (2023);Experiment 1;Orientation;1
2;130;132;2;3.34877559999586;2;76;40;Houborg et al. (2023);Experiment 1;Orientation;1
2;76;62;-14;1.91770540000289;3;54;41;Houborg et al. (2023);Experiment 1;Orientation;1
2;132;124;-8;4.09863170000608;3;-56;42;Houborg et al. (2023);Experiment 1;Orientation;1
2;179;10;11;2.80016770001384;3;-47;43;Houborg et al. (2023);Experiment 1;Orientation;1
2;16;28;12;1.53382389998296;3;-17;44;Houborg et al. (2023);Experiment 1;Orientation;1
2;7;6;-1;4.78257750000921;3;9;45;Houborg et al. (2023);Experiment 1;Orientation;1
2;124;127;3;4.08486100001028;3;63;46;Houborg et al. (2023);Experiment 1;Orientation;1
2;162;137;-25;3.43299699999625;3;-38;47;Houborg et al. (2023);Experiment 1;Orientation;1
2;164;172;8;4.86862130000372;3;-2;48;Houborg et al. (2023);Experiment 1;Orientation;1
2;80;68;-12;2.26614570000675;3;84;49;Houborg et al. (2023);Experiment 1;Orientation;1
2;161;153;-8;1.3502694000199;3;-81;50;Houborg et al. (2023);Experiment 1;Orientation;1
2;172;158;-14;2.83426800000598;3;-11;51;Houborg et al. (2023);Experiment 1;Orientation;1
2;57;50;-7;2.0667325000104;3;-65;52;Houborg et al. (2023);Experiment 1;Orientation;1
2;66;58;-8;4.06755780000822;3;-9;53;Houborg et al. (2023);Experiment 1;Orientation;1
2;54;39;-15;3.65213060000679;3;12;54;Houborg et al. (2023);Experiment 1;Orientation;1
2;13;21;8;2.06766420000349;3;41;55;Houborg et al. (2023);Experiment 1;Orientation;1
2;173;3;10;4.26569800000289;3;20;56;Houborg et al. (2023);Experiment 1;Orientation;1
2;29;27;-2;3.0322222999821;3;-36;57;Houborg et al. (2023);Experiment 1;Orientation;1
2;177;6;9;6.98474590000114;3;32;58;Houborg et al. (2023);Experiment 1;Orientation;1
2;136;136;0;2.21604430000298;3;41;59;Houborg et al. (2023);Experiment 1;Orientation;1
2;70;57;-13;2.8508109000104;3;66;60;Houborg et al. (2023);Experiment 1;Orientation;1
2;4;11;7;4.35168590000831;4;66;61;Houborg et al. (2023);Experiment 1;Orientation;1
2;81;59;-22;2.36708850000286;4;-77;62;Houborg et al. (2023);Experiment 1;Orientation;1
2;51;49;-2;3.53341340000043;4;30;63;Houborg et al. (2023);Experiment 1;Orientation;1
2;165;139;-26;2.31643629999598;4;66;64;Houborg et al. (2023);Experiment 1;Orientation;1
2;121;121;0;2.73433580002165;4;44;65;Houborg et al. (2023);Experiment 1;Orientation;1
2;2;0;-2;5.45068559999345;4;-61;66;Houborg et al. (2023);Experiment 1;Orientation;1
2;24;43;19;2.13472410000395;4;-22;67;Houborg et al. (2023);Experiment 1;Orientation;1
2;58;54;-4;2.93361020000884;4;-34;68;Houborg et al. (2023);Experiment 1;Orientation;1
2;48;41;-7;2.46734800000559;4;10;69;Houborg et al. (2023);Experiment 1;Orientation;1
2;4;10;6;7.01652410000679;4;44;70;Houborg et al. (2023);Experiment 1;Orientation;1
2;2;6;4;4.88497070001904;4;2;71;Houborg et al. (2023);Experiment 1;Orientation;1
2;54;64;10;2.58255419999477;4;-52;72;Houborg et al. (2023);Experiment 1;Orientation;1
2;125;127;2;5.41827749999356;4;-71;73;Houborg et al. (2023);Experiment 1;Orientation;1
2;47;46;-1;1.45044840002083;4;78;74;Houborg et al. (2023);Experiment 1;Orientation;1
2;11;16;5;2.66747439999017;4;36;75;Houborg et al. (2023);Experiment 1;Orientation;1
2;28;30;2;1.90069410001161;4;-17;76;Houborg et al. (2023);Experiment 1;Orientation;1
2;40;31;-9;6.20064289998845;4;-12;77;Houborg et al. (2023);Experiment 1;Orientation;1
2;73;80;7;2.24985410002409;4;-33;78;Houborg et al. (2023);Experiment 1;Orientation;1
2;86;95;9;3.68460479998612;4;-13;79;Houborg et al. (2023);Experiment 1;Orientation;1
2;2;2;0;3.25161269999808;4;84;80;Houborg et al. (2023);Experiment 1;Orientation;1
2;87;77;-10;1.83231440000236;5;-85;81;Houborg et al. (2023);Experiment 1;Orientation;1
2;121;145;24;2.53437710000435;5;-34;82;Houborg et al. (2023);Experiment 1;Orientation;1
2;150;152;2;3.84864260000177;5;-29;83;Houborg et al. (2023);Experiment 1;Orientation;1
2;165;162;-3;3.83515920001082;5;-15;84;Houborg et al. (2023);Experiment 1;Orientation;1
2;74;81;7;3.93501560000004;5;-89;85;Houborg et al. (2023);Experiment 1;Orientation;1
2;82;83;1;2.402490700013;5;-8;86;Houborg et al. (2023);Experiment 1;Orientation;1
2;53;30;-23;2.28495999998995;5;29;87;Houborg et al. (2023);Experiment 1;Orientation;1
2;109;121;12;3.95026179999695;5;-56;88;Houborg et al. (2023);Experiment 1;Orientation;1
2;133;129;-4;3.01683249999769;5;-24;89;Houborg et al. (2023);Experiment 1;Orientation;1
2;175;170;-5;1.88460759998998;5;-42;90;Houborg et al. (2023);Experiment 1;Orientation;1
2;127;132;5;1.4676279000123;5;48;91;Houborg et al. (2023);Experiment 1;Orientation;1
2;64;59;-5;3.31772970000748;5;63;92;Houborg et al. (2023);Experiment 1;Orientation;1
2;180;0;0;1.13216969999485;5;64;93;Houborg et al. (2023);Experiment 1;Orientation;1
2;180;8;8;2.01579720000154;5;0;94;Houborg et al. (2023);Experiment 1;Orientation;1
2;4;178;-6;1.83356960001402;5;-4;95;Houborg et al. (2023);Experiment 1;Orientation;1
2;18;29;11;3.03431509999791;5;-14;96;Houborg et al. (2023);Experiment 1;Orientation;1
2;80;68;-12;3.05067230001441;5;-62;97;Houborg et al. (2023);Experiment 1;Orientation;1
2;169;148;-21;2.30043659999501;5;-89;98;Houborg et al. (2023);Experiment 1;Orientation;1
2;124;111;-13;3.03364509998937;5;45;99;Houborg et al. (2023);Experiment 1;Orientation;1
2;97;112;15;1.43483489999198;5;27;100;Houborg et al. (2023);Experiment 1;Orientation;1
2;177;172;-5;1.8015903000196;6;-80;101;Houborg et al. (2023);Experiment 1;Orientation;1
2;115;112;-3;1.51722499998868;6;62;102;Houborg et al. (2023);Experiment 1;Orientation;1
2;172;160;-12;5.45221010001842;6;-57;103;Houborg et al. (2023);Experiment 1;Orientation;1
2;139;126;-13;1.60061950000818;6;33;104;Houborg et al. (2023);Experiment 1;Orientation;1
2;103;117;14;0.967032199987443;6;36;105;Houborg et al. (2023);Experiment 1;Orientation;1
2;95;112;17;1.7341524999938;6;8;106;Houborg et al. (2023);Experiment 1;Orientation;1
2;140;142;2;3.54845720002777;6;-45;107;Houborg et al. (2023);Experiment 1;Orientation;1
2;38;47;9;2.58478370000375;6;-78;108;Houborg et al. (2023);Experiment 1;Orientation;1
2;125;135;10;2.13241729998845;6;-87;109;Houborg et al. (2023);Experiment 1;Orientation;1
2;101;115;14;1.33233739997377;6;24;110;Houborg et al. (2023);Experiment 1;Orientation;1
2;43;52;9;3.61656789999688;6;58;111;Houborg et al. (2023);Experiment 1;Orientation;1
2;36;36;0;2.61703270001453;6;7;112;Houborg et al. (2023);Experiment 1;Orientation;1
2;152;133;-19;4.35078070001327;6;64;113;Houborg et al. (2023);Experiment 1;Orientation;1
2;70;82;12;3.46736260000034;6;82;114;Houborg et al. (2023);Experiment 1;Orientation;1
2;162;154;-8;2.18474590001279;6;88;115;Houborg et al. (2023);Experiment 1;Orientation;1
2;116;125;9;2.65174510001088;6;46;116;Houborg et al. (2023);Experiment 1;Orientation;1
2;6;11;5;3.66752370001632;6;-70;117;Houborg et al. (2023);Experiment 1;Orientation;1
2;70;67;-3;5.34991039999295;6;-64;118;Houborg et al. (2023);Experiment 1;Orientation;1
2;56;48;-8;2.46758349999436;6;14;119;Houborg et al. (2023);Experiment 1;Orientation;1
2;109;97;-12;2.4005072999862;6;-53;120;Houborg et al. (2023);Experiment 1;Orientation;1
2;119;116;-3;1.43350300000748;7;-10;121;Houborg et al. (2023);Experiment 1;Orientation;1
2;73;60;-13;1.90164619998541;7;46;122;Houborg et al. (2023);Experiment 1;Orientation;1
2;2;177;-5;1.65086920000613;7;71;123;Houborg et al. (2023);Experiment 1;Orientation;1
2;84;81;-3;2.13239470002009;7;-82;124;Houborg et al. (2023);Experiment 1;Orientation;1
2;23;31;8;4.35037199998624;7;61;125;Houborg et al. (2023);Experiment 1;Orientation;1
2;26;30;4;2.91756480000913;7;-3;126;Houborg et al. (2023);Experiment 1;Orientation;1
2;19;24;5;1.78463199999533;7;7;127;Houborg et al. (2023);Experiment 1;Orientation;1
2;10;25;15;1.6839966000116;7;9;128;Houborg et al. (2023);Experiment 1;Orientation;1
2;139;128;-11;2.30085160001181;7;51;129;Houborg et al. (2023);Experiment 1;Orientation;1
2;28;35;7;1.96661920001497;7;-69;130;Houborg et al. (2023);Experiment 1;Orientation;1
2;45;52;7;2.86573170000338;7;-17;131;Houborg et al. (2023);Experiment 1;Orientation;1
2;121;127;6;3.94861220000894;7;-76;132;Houborg et al. (2023);Experiment 1;Orientation;1
2;67;65;-2;1.6499675999803;7;54;133;Houborg et al. (2023);Experiment 1;Orientation;1
2;58;52;-6;1.86546130001079;7;9;134;Houborg et al. (2023);Experiment 1;Orientation;1
2;175;156;-19;1.24971080000978;7;63;135;Houborg et al. (2023);Experiment 1;Orientation;1
2;58;39;-19;1.43424399997457;7;-63;136;Houborg et al. (2023);Experiment 1;Orientation;1
2;67;60;-7;6.16705920000095;7;-9;137;Houborg et al. (2023);Experiment 1;Orientation;1
2;33;34;1;1.91572350001661;7;34;138;Houborg et al. (2023);Experiment 1;Orientation;1
2;21;23;2;2.11756449998938;7;12;139;Houborg et al. (2023);Experiment 1;Orientation;1
2;10;7;-3;2.31661310000345;7;11;140;Houborg et al. (2023);Experiment 1;Orientation;1
2;114;127;13;1.41589050000766;8;76;141;Houborg et al. (2023);Experiment 1;Orientation;1
2;59;57;-2;1.5002300000051;8;55;142;Houborg et al. (2023);Experiment 1;Orientation;1
2;108;117;9;1.79940779999015;8;-49;143;Houborg et al. (2023);Experiment 1;Orientation;1
2;135;133;-2;5.30024270000285;8;-27;144;Houborg et al. (2023);Experiment 1;Orientation;1
2;1;1;0;4.28484800001024;8;-46;145;Houborg et al. (2023);Experiment 1;Orientation;1
2;65;63;-2;3.43445430000429;8;-64;146;Houborg et al. (2023);Experiment 1;Orientation;1
2;34;33;-1;2.18388619998586;8;31;147;Houborg et al. (2023);Experiment 1;Orientation;1
2;44;66;22;2.03414130001329;8;-10;148;Houborg et al. (2023);Experiment 1;Orientation;1
2;99;117;18;3.76766259997385;8;-55;149;Houborg et al. (2023);Experiment 1;Orientation;1
2;79;77;-2;3.74861260000034;8;20;150;Houborg et al. (2023);Experiment 1;Orientation;1
2;50;45;-5;2.33465919998707;8;29;151;Houborg et al. (2023);Experiment 1;Orientation;1
2;79;81;2;4.36653329999535;8;-29;152;Houborg et al. (2023);Experiment 1;Orientation;1
2;143;141;-2;2.01616379999905;8;-64;153;Houborg et al. (2023);Experiment 1;Orientation;1
2;83;75;-8;3.88486679998459;8;60;154;Houborg et al. (2023);Experiment 1;Orientation;1
2;130;138;8;3.46792649998679;8;-47;155;Houborg et al. (2023);Experiment 1;Orientation;1
2;140;125;-15;3.31763350000256;8;-10;156;Houborg et al. (2023);Experiment 1;Orientation;1
2;117;125;8;1.43485459999647;8;23;157;Houborg et al. (2023);Experiment 1;Orientation;1
2;31;42;11;1.1322921999963;8;86;158;Houborg et al. (2023);Experiment 1;Orientation;1
2;107;126;19;1.19798019999871;8;-76;159;Houborg et al. (2023);Experiment 1;Orientation;1
2;94;108;14;1.5175683000125;8;13;160;Houborg et al. (2023);Experiment 1;Orientation;1
2;149;144;-5;1.86704690000624;9;-55;161;Houborg et al. (2023);Experiment 1;Orientation;1
2;100;106;6;1.69930539999041;9;49;162;Houborg et al. (2023);Experiment 1;Orientation;1
2;180;2;2;2.44990430001053;9;-80;163;Houborg et al. (2023);Experiment 1;Orientation;1
2;166;159;-7;1.44920450000791;9;14;164;Houborg et al. (2023);Experiment 1;Orientation;1
2;83;78;-5;2.2328422999999;9;83;165;Houborg et al. (2023);Experiment 1;Orientation;1
2;81;78;-3;2.38475150000886;9;2;166;Houborg et al. (2023);Experiment 1;Orientation;1
2;55;54;-1;1.85003430000506;9;26;167;Houborg et al. (2023);Experiment 1;Orientation;1
2;37;48;11;1.50205079998705;9;18;168;Houborg et al. (2023);Experiment 1;Orientation;1
2;61;53;-8;1.35053699999116;9;-24;169;Houborg et al. (2023);Experiment 1;Orientation;1
2;101;114;13;2.01796359999571;9;-40;170;Houborg et al. (2023);Experiment 1;Orientation;1
2;122;118;-4;2.1172663999896;9;-21;171;Houborg et al. (2023);Experiment 1;Orientation;1
2;69;53;-16;2.13326790000428;9;53;172;Houborg et al. (2023);Experiment 1;Orientation;1
2;170;159;-11;2.26833140000235;9;79;173;Houborg et al. (2023);Experiment 1;Orientation;1
2;121;131;10;1.21804169999086;9;49;174;Houborg et al. (2023);Experiment 1;Orientation;1
2;19;35;16;1.16666760001681;9;-78;175;Houborg et al. (2023);Experiment 1;Orientation;1
2;9;25;16;1.55020309999236;9;10;176;Houborg et al. (2023);Experiment 1;Orientation;1
2;60;66;6;1.80069499998353;9;-51;177;Houborg et al. (2023);Experiment 1;Orientation;1
2;172;163;-9;1.78364790001069;9;68;178;Houborg et al. (2023);Experiment 1;Orientation;1
2;104;115;11;2.30122799999663;9;68;179;Houborg et al. (2023);Experiment 1;Orientation;1
2;101;105;4;2.43237699999008;9;3;180;Houborg et al. (2023);Experiment 1;Orientation;1
2;58;71;13;1.8676738999784;10;43;181;Houborg et al. (2023);Experiment 1;Orientation;1
2;103;104;1;2.16741419999744;10;-45;182;Houborg et al. (2023);Experiment 1;Orientation;1
2;101;110;9;2.56745560001582;10;2;183;Houborg et al. (2023);Experiment 1;Orientation;1
2;154;168;14;1.03358139999909;10;-53;184;Houborg et al. (2023);Experiment 1;Orientation;1
2;88;95;7;1.91688090001117;10;66;185;Houborg et al. (2023);Experiment 1;Orientation;1
2;25;44;19;2.04991370000062;10;63;186;Houborg et al. (2023);Experiment 1;Orientation;1
2;13;28;15;1.60062640000251;10;12;187;Houborg et al. (2023);Experiment 1;Orientation;1
2;86;70;-16;1.78402400002233;10;-73;188;Houborg et al. (2023);Experiment 1;Orientation;1
2;115;107;-8;3.44990330000292;10;-29;189;Houborg et al. (2023);Experiment 1;Orientation;1
2;104;122;18;5.84985810000217;10;11;190;Houborg et al. (2023);Experiment 1;Orientation;1
2;71;72;1;2.30080709999311;10;33;191;Houborg et al. (2023);Experiment 1;Orientation;1
2;169;164;-5;1.90140499998233;10;82;192;Houborg et al. (2023);Experiment 1;Orientation;1
2;45;67;22;1.94933380000293;10;-56;193;Houborg et al. (2023);Experiment 1;Orientation;1
2;111;129;18;1.16838419999112;10;-66;194;Houborg et al. (2023);Experiment 1;Orientation;1
2;49;46;-3;2.71813569997903;10;62;195;Houborg et al. (2023);Experiment 1;Orientation;1
2;163;160;-3;2.250532200007;10;66;196;Houborg et al. (2023);Experiment 1;Orientation;1
2;180;176;-4;1.4514468999987;10;-17;197;Houborg et al. (2023);Experiment 1;Orientation;1
2;104;101;-3;2.35000979999313;10;76;198;Houborg et al. (2023);Experiment 1;Orientation;1
2;69;72;3;1.08497900000657;10;35;199;Houborg et al. (2023);Experiment 1;Orientation;1
2;22;47;25;2.94975989998784;10;47;200;Houborg et al. (2023);Experiment 1;Orientation;1
3;12;26;14;2.28502630000003;1;NaN;1;Houborg et al. (2023);Experiment 1;Orientation;1
3;22;34;12;1.78261679998832;1;-10;2;Houborg et al. (2023);Experiment 1;Orientation;1
3;179;178;-1;1.83481839997694;1;23;3;Houborg et al. (2023);Experiment 1;Orientation;1
3;32;33;1;2.51702689996455;1;-33;4;Houborg et al. (2023);Experiment 1;Orientation;1
3;50;103;53;1.85138790000929;1;-18;5;Houborg et al. (2023);Experiment 1;Orientation;1
3;128;147;19;2.2513684000005;1;-78;6;Houborg et al. (2023);Experiment 1;Orientation;1
3;1;1;0;1.78507460001856;1;-53;7;Houborg et al. (2023);Experiment 1;Orientation;1
3;170;164;-6;1.80070560000604;1;11;8;Houborg et al. (2023);Experiment 1;Orientation;1
3;54;52;-2;1.20094830001472;1;-64;9;Houborg et al. (2023);Experiment 1;Orientation;1
3;69;67;-2;1.2009366999846;1;-15;10;Houborg et al. (2023);Experiment 1;Orientation;1
3;4;179;-5;2.18431390001206;1;65;11;Houborg et al. (2023);Experiment 1;Orientation;1
3;20;30;10;1.48241530003725;1;-16;12;Houborg et al. (2023);Experiment 1;Orientation;1
3;110;121;11;1.91726419999031;1;-90;13;Houborg et al. (2023);Experiment 1;Orientation;1
3;12;30;18;2.00139749998925;1;-82;14;Houborg et al. (2023);Experiment 1;Orientation;1
3;58;42;-16;1.28412140003638;1;-46;15;Houborg et al. (2023);Experiment 1;Orientation;1
3;103;99;-4;1.57990349997999;1;-45;16;Houborg et al. (2023);Experiment 1;Orientation;1
3;81;82;1;1.68453979998594;1;22;17;Houborg et al. (2023);Experiment 1;Orientation;1
3;151;143;-8;1.45061419997364;1;-70;18;Houborg et al. (2023);Experiment 1;Orientation;1
3;62;60;-2;2.11819450004259;1;89;19;Houborg et al. (2023);Experiment 1;Orientation;1
3;111;124;13;1.8016819000477;1;-49;20;Houborg et al. (2023);Experiment 1;Orientation;1
3;56;52;-4;1.48265880002873;2;55;21;Houborg et al. (2023);Experiment 1;Orientation;1
3;60;42;-18;2.30076300003566;2;-4;22;Houborg et al. (2023);Experiment 1;Orientation;1
3;72;64;-8;1.51723269996;2;-12;23;Houborg et al. (2023);Experiment 1;Orientation;1
3;83;74;-9;1.2501071000006;2;-11;24;Houborg et al. (2023);Experiment 1;Orientation;1
3;2;7;5;1.40135629998986;2;81;25;Houborg et al. (2023);Experiment 1;Orientation;1
3;59;56;-3;2.33426209999016;2;-57;26;Houborg et al. (2023);Experiment 1;Orientation;1
3;152;143;-9;2.40028310002526;2;87;27;Houborg et al. (2023);Experiment 1;Orientation;1
3;159;149;-10;2.04947939998237;2;-7;28;Houborg et al. (2023);Experiment 1;Orientation;1
3;63;36;-27;2.00021069997456;2;-84;29;Houborg et al. (2023);Experiment 1;Orientation;1
3;61;61;0;1.49988419999136;2;2;30;Houborg et al. (2023);Experiment 1;Orientation;1
3;5;4;-1;1.65080329996999;2;56;31;Houborg et al. (2023);Experiment 1;Orientation;1
3;83;78;-5;2.00125239999034;2;-78;32;Houborg et al. (2023);Experiment 1;Orientation;1
3;18;14;-4;1.23532510001678;2;65;33;Houborg et al. (2023);Experiment 1;Orientation;1
3;11;13;2;2.00114219996613;2;7;34;Houborg et al. (2023);Experiment 1;Orientation;1
3;142;148;6;2.23460690001957;2;49;35;Houborg et al. (2023);Experiment 1;Orientation;1
3;150;141;-9;1.8847355999751;2;-8;36;Houborg et al. (2023);Experiment 1;Orientation;1
3;26;23;-3;1.48445480002556;2;-56;37;Houborg et al. (2023);Experiment 1;Orientation;1
3;58;51;-7;1.49933889997192;2;-32;38;Houborg et al. (2023);Experiment 1;Orientation;1
3;162;146;-16;1.0502950999653;2;76;39;Houborg et al. (2023);Experiment 1;Orientation;1
3;138;141;3;1.45155560004059;2;24;40;Houborg et al. (2023);Experiment 1;Orientation;1
3;32;33;1;3.70218060002662;3;-74;41;Houborg et al. (2023);Experiment 1;Orientation;1
3;28;29;1;1.53292669996154;3;4;42;Houborg et al. (2023);Experiment 1;Orientation;1
3;96;30;-66;7.88444029999664;3;-68;43;Houborg et al. (2023);Experiment 1;Orientation;1
3;123;151;28;1.69934880000073;3;-27;44;Houborg et al. (2023);Experiment 1;Orientation;1
3;48;32;-16;1.34986269997898;3;75;45;Houborg et al. (2023);Experiment 1;Orientation;1
3;87;88;1;1.78441309998743;3;-39;46;Houborg et al. (2023);Experiment 1;Orientation;1
3;24;30;6;1.70078390004346;3;63;47;Houborg et al. (2023);Experiment 1;Orientation;1
3;123;117;-6;1.3017093000235;3;81;48;Houborg et al. (2023);Experiment 1;Orientation;1
3;78;78;0;1.75094210001407;3;45;49;Houborg et al. (2023);Experiment 1;Orientation;1
3;13;36;23;1.35072420001961;3;65;50;Houborg et al. (2023);Experiment 1;Orientation;1
3;10;16;6;2.11477089999244;3;3;51;Houborg et al. (2023);Experiment 1;Orientation;1
3;100;97;-3;1.41812709998339;3;-90;52;Houborg et al. (2023);Experiment 1;Orientation;1
3;12;16;4;1.24853739998071;3;88;53;Houborg et al. (2023);Experiment 1;Orientation;1
3;47;54;7;1.53350369998952;3;-35;54;Houborg et al. (2023);Experiment 1;Orientation;1
3;131;142;11;1.33489459997509;3;-84;55;Houborg et al. (2023);Experiment 1;Orientation;1
3;69;65;-4;2.1671798999887;3;62;56;Houborg et al. (2023);Experiment 1;Orientation;1
3;120;125;5;2.15086910000537;3;-51;57;Houborg et al. (2023);Experiment 1;Orientation;1
3;96;97;1;1.40124360000482;3;24;58;Houborg et al. (2023);Experiment 1;Orientation;1
3;2;179;-3;1.93467369995778;3;-86;59;Houborg et al. (2023);Experiment 1;Orientation;1
3;149;148;-1;1.61684380000224;3;33;60;Houborg et al. (2023);Experiment 1;Orientation;1
3;35;39;4;1.81785749999108;4;-66;61;Houborg et al. (2023);Experiment 1;Orientation;1
3;32;47;15;1.3507972000516;4;3;62;Houborg et al. (2023);Experiment 1;Orientation;1
3;115;120;5;1.01874310005223;4;-83;63;Houborg et al. (2023);Experiment 1;Orientation;1
3;77;70;-7;0.74969060003059;4;38;64;Houborg et al. (2023);Experiment 1;Orientation;1
3;179;177;-2;1.15027869999176;4;78;65;Houborg et al. (2023);Experiment 1;Orientation;1
3;25;22;-3;1.56643880001502;4;-26;66;Houborg et al. (2023);Experiment 1;Orientation;1
3;144;138;-6;1.36841740005184;4;61;67;Houborg et al. (2023);Experiment 1;Orientation;1
3;170;165;-5;1.51703609997639;4;-26;68;Houborg et al. (2023);Experiment 1;Orientation;1
3;176;168;-8;0.81619480001973;4;-6;69;Houborg et al. (2023);Experiment 1;Orientation;1
3;168;163;-5;1.71659550000913;4;8;70;Houborg et al. (2023);Experiment 1;Orientation;1
3;116;126;10;1.35150519997114;4;52;71;Houborg et al. (2023);Experiment 1;Orientation;1
3;167;167;0;1.26752150000539;4;-51;72;Houborg et al. (2023);Experiment 1;Orientation;1
3;2;178;-4;1.40115910000168;4;-15;73;Houborg et al. (2023);Experiment 1;Orientation;1
3;19;23;4;1.384780900029;4;-17;74;Houborg et al. (2023);Experiment 1;Orientation;1
3;97;101;4;1.26750399998855;4;-78;75;Houborg et al. (2023);Experiment 1;Orientation;1
3;79;81;2;1.75126859999727;4;18;76;Houborg et al. (2023);Experiment 1;Orientation;1
3;166;165;-1;1.16776579996804;4;-87;77;Houborg et al. (2023);Experiment 1;Orientation;1
3;32;32;0;1.56814629997825;4;-46;78;Houborg et al. (2023);Experiment 1;Orientation;1
3;161;156;-5;2.03190649999306;4;51;79;Houborg et al. (2023);Experiment 1;Orientation;1
3;170;166;-4;1.28381260001333;4;-9;80;Houborg et al. (2023);Experiment 1;Orientation;1
3;133;116;-17;1.31599370000185;5;37;81;Houborg et al. (2023);Experiment 1;Orientation;1
3;29;44;15;1.5676897999947;5;-76;82;Houborg et al. (2023);Experiment 1;Orientation;1
3;139;156;17;1.75148670002818;5;70;83;Houborg et al. (2023);Experiment 1;Orientation;1
3;137;147;10;1.68244130001403;5;2;84;Houborg et al. (2023);Experiment 1;Orientation;1
3;157;159;2;1.76604740001494;5;-20;85;Houborg et al. (2023);Experiment 1;Orientation;1
3;30;39;9;1.48494210001081;5;-53;86;Houborg et al. (2023);Experiment 1;Orientation;1
3;132;138;6;1.13587719999487;5;78;87;Houborg et al. (2023);Experiment 1;Orientation;1
3;155;142;-13;1.78467740002088;5;-23;88;Houborg et al. (2023);Experiment 1;Orientation;1
3;84;79;-5;1.58321400004206;5;71;89;Houborg et al. (2023);Experiment 1;Orientation;1
3;17;20;3;1.50110690004658;5;67;90;Houborg et al. (2023);Experiment 1;Orientation;1
3;161;149;-12;1.49989659996936;5;36;91;Houborg et al. (2023);Experiment 1;Orientation;1
3;145;144;-1;1.50117420003517;5;16;92;Houborg et al. (2023);Experiment 1;Orientation;1
3;91;91;0;1.3669518000097;5;54;93;Houborg et al. (2023);Experiment 1;Orientation;1
3;107;112;5;1.41698929999257;5;-16;94;Houborg et al. (2023);Experiment 1;Orientation;1
3;142;128;-14;1.33492699998897;5;-35;95;Houborg et al. (2023);Experiment 1;Orientation;1
3;41;56;15;1.9501036000438;5;-79;96;Houborg et al. (2023);Experiment 1;Orientation;1
3;52;57;5;1.1514659000095;5;-11;97;Houborg et al. (2023);Experiment 1;Orientation;1
3;87;79;-8;1.83378990000347;5;-35;98;Houborg et al. (2023);Experiment 1;Orientation;1
3;61;55;-6;1.20083169999998;5;26;99;Houborg et al. (2023);Experiment 1;Orientation;1
3;39;42;3;1.25096189999022;5;22;100;Houborg et al. (2023);Experiment 1;Orientation;1
3;114;118;4;1.384149599995;6;-75;101;Houborg et al. (2023);Experiment 1;Orientation;1
3;101;115;14;1.50035779998871;6;13;102;Houborg et al. (2023);Experiment 1;Orientation;1
3;29;30;1;1.39973280002596;6;72;103;Houborg et al. (2023);Experiment 1;Orientation;1
3;157;159;2;1.29932439996628;6;52;104;Houborg et al. (2023);Experiment 1;Orientation;1
3;110;121;11;0.985150099964812;6;47;105;Houborg et al. (2023);Experiment 1;Orientation;1
3;119;128;9;1.38350729999365;6;-9;106;Houborg et al. (2023);Experiment 1;Orientation;1
3;32;31;-1;1.58416000002762;6;87;107;Houborg et al. (2023);Experiment 1;Orientation;1
3;152;136;-16;1.46719689999009;6;60;108;Houborg et al. (2023);Experiment 1;Orientation;1
3;146;139;-7;1.18326469999738;6;6;109;Houborg et al. (2023);Experiment 1;Orientation;1
3;3;174;-9;1.28387670003576;6;-37;110;Houborg et al. (2023);Experiment 1;Orientation;1
3;129;143;14;1.53241389995674;6;54;111;Houborg et al. (2023);Experiment 1;Orientation;1
3;166;155;-11;1.03483659995254;6;-37;112;Houborg et al. (2023);Experiment 1;Orientation;1
3;173;2;9;2.2161779999733;6;-7;113;Houborg et al. (2023);Experiment 1;Orientation;1
3;104;108;4;1.50067160004983;6;69;114;Houborg et al. (2023);Experiment 1;Orientation;1
3;124;127;3;1.53416570002446;6;-20;115;Houborg et al. (2023);Experiment 1;Orientation;1
3;46;38;-8;1.43179239996243;6;78;116;Houborg et al. (2023);Experiment 1;Orientation;1
3;167;164;-3;1.33263950003311;6;59;117;Houborg et al. (2023);Experiment 1;Orientation;1
3;92;90;-2;1.89857689995551;6;75;118;Houborg et al. (2023);Experiment 1;Orientation;1
3;34;38;4;1.43077400000766;6;58;119;Houborg et al. (2023);Experiment 1;Orientation;1
3;115;110;-5;0.882761300017592;6;-81;120;Houborg et al. (2023);Experiment 1;Orientation;1
3;108;108;0;2.50100420002127;7;7;121;Houborg et al. (2023);Experiment 1;Orientation;1
3;55;59;4;1.50163100002101;7;53;122;Houborg et al. (2023);Experiment 1;Orientation;1
3;117;123;6;1.49989009997807;7;-62;123;Houborg et al. (2023);Experiment 1;Orientation;1
3;151;156;5;1.55058219999773;7;-34;124;Houborg et al. (2023);Experiment 1;Orientation;1
3;165;150;-15;1.15112960000988;7;-14;125;Houborg et al. (2023);Experiment 1;Orientation;1
3;149;143;-6;1.06776279996848;7;16;126;Houborg et al. (2023);Experiment 1;Orientation;1
3;30;34;4;0.76607759995386;7;-61;127;Houborg et al. (2023);Experiment 1;Orientation;1
3;160;160;0;1.61764360003872;7;50;128;Houborg et al. (2023);Experiment 1;Orientation;1
3;144;154;10;1.90139489999274;7;16;129;Houborg et al. (2023);Experiment 1;Orientation;1
3;41;45;4;2.01811260002432;7;-77;130;Houborg et al. (2023);Experiment 1;Orientation;1
3;24;20;-4;1.51781880005728;7;17;131;Houborg et al. (2023);Experiment 1;Orientation;1
3;180;179;-1;2.55031690001488;7;24;132;Houborg et al. (2023);Experiment 1;Orientation;1
3;140;141;1;1.30175539996708;7;40;133;Houborg et al. (2023);Experiment 1;Orientation;1
3;103;116;13;1.26608359999955;7;37;134;Houborg et al. (2023);Experiment 1;Orientation;1
3;63;64;1;1.55092480004532;7;40;135;Houborg et al. (2023);Experiment 1;Orientation;1
3;162;160;-2;1.08328829996753;7;81;136;Houborg et al. (2023);Experiment 1;Orientation;1
3;124;142;18;1.59983259998262;7;38;137;Houborg et al. (2023);Experiment 1;Orientation;1
3;94;94;0;1.234570599976;7;30;138;Houborg et al. (2023);Experiment 1;Orientation;1
3;46;43;-3;1.28446880000411;7;48;139;Houborg et al. (2023);Experiment 1;Orientation;1
3;75;71;-4;2.06814420002047;7;-29;140;Houborg et al. (2023);Experiment 1;Orientation;1
3;89;99;10;1.44933889998356;8;-14;141;Houborg et al. (2023);Experiment 1;Orientation;1
3;146;141;-5;1.26832759997342;8;-57;142;Houborg et al. (2023);Experiment 1;Orientation;1
3;64;60;-4;1.19939379999414;8;82;143;Houborg et al. (2023);Experiment 1;Orientation;1
3;139;139;0;1.18316559999948;8;-75;144;Houborg et al. (2023);Experiment 1;Orientation;1
3;83;82;-1;1.91709920001449;8;56;145;Houborg et al. (2023);Experiment 1;Orientation;1
3;179;178;-1;1.5507070000167;8;84;146;Houborg et al. (2023);Experiment 1;Orientation;1
3;85;89;4;1.59982090000995;8;-86;147;Houborg et al. (2023);Experiment 1;Orientation;1
3;80;83;3;1.317923399969;8;5;148;Houborg et al. (2023);Experiment 1;Orientation;1
3;87;94;7;1.8510910999612;8;-7;149;Houborg et al. (2023);Experiment 1;Orientation;1
3;130;133;3;1.05042310000863;8;-43;150;Houborg et al. (2023);Experiment 1;Orientation;1
3;64;74;10;1.18467570003122;8;66;151;Houborg et al. (2023);Experiment 1;Orientation;1
3;17;24;7;1.24935339996591;8;47;152;Houborg et al. (2023);Experiment 1;Orientation;1
3;117;140;23;1.3170823000255;8;80;153;Houborg et al. (2023);Experiment 1;Orientation;1
3;45;29;-16;0.633903299982194;8;72;154;Houborg et al. (2023);Experiment 1;Orientation;1
3;135;146;11;1.13490030000685;8;-90;155;Houborg et al. (2023);Experiment 1;Orientation;1
3;174;169;-5;0.651381100004073;8;-39;156;Houborg et al. (2023);Experiment 1;Orientation;1
3;113;116;3;1.96757139998954;8;61;157;Houborg et al. (2023);Experiment 1;Orientation;1
3;115;109;-6;1.51658180000959;8;-2;158;Houborg et al. (2023);Experiment 1;Orientation;1
3;162;155;-7;1.30169160000514;8;-47;159;Houborg et al. (2023);Experiment 1;Orientation;1
3;26;49;23;1.79887920001056;8;-44;160;Houborg et al. (2023);Experiment 1;Orientation;1
3;25;17;-8;1.7332467000233;9;1;161;Houborg et al. (2023);Experiment 1;Orientation;1
3;40;26;-14;1.40165220003109;9;-15;162;Houborg et al. (2023);Experiment 1;Orientation;1
3;128;127;-1;0.834597300039604;9;-88;163;Houborg et al. (2023);Experiment 1;Orientation;1
3;91;96;5;1.23499189998256;9;37;164;Houborg et al. (2023);Experiment 1;Orientation;1
3;144;134;-10;1.03253749996657;9;-53;165;Houborg et al. (2023);Experiment 1;Orientation;1
3;153;139;-14;1.50065870000981;9;-9;166;Houborg et al. (2023);Experiment 1;Orientation;1
3;54;54;0;1.34971059998497;9;-81;167;Houborg et al. (2023);Experiment 1;Orientation;1
3;90;84;-6;1.23413090000395;9;-36;168;Houborg et al. (2023);Experiment 1;Orientation;1
3;76;68;-8;1.59824219997972;9;14;169;Houborg et al. (2023);Experiment 1;Orientation;1
3;58;61;3;1.71538810001221;9;18;170;Houborg et al. (2023);Experiment 1;Orientation;1
3;89;92;3;1.23420079995412;9;-31;171;Houborg et al. (2023);Experiment 1;Orientation;1
3;11;24;13;1.58480680000503;9;78;172;Houborg et al. (2023);Experiment 1;Orientation;1
3;129;135;6;2.98432829999365;9;62;173;Houborg et al. (2023);Experiment 1;Orientation;1
3;101;101;0;1.31643659999827;9;28;174;Houborg et al. (2023);Experiment 1;Orientation;1
3;14;11;-3;1.3350220999564;9;87;175;Houborg et al. (2023);Experiment 1;Orientation;1
3;9;20;11;1.99932309996802;9;5;176;Houborg et al. (2023);Experiment 1;Orientation;1
3;104;118;14;1.26853280002251;9;85;177;Houborg et al. (2023);Experiment 1;Orientation;1
3;135;133;-2;1.70087180001428;9;-31;178;Houborg et al. (2023);Experiment 1;Orientation;1
3;28;36;8;1.03394949994981;9;-73;179;Houborg et al. (2023);Experiment 1;Orientation;1
3;88;90;2;2.15149959997507;9;-60;180;Houborg et al. (2023);Experiment 1;Orientation;1
3;136;119;-17;1.09897039999487;10;-48;181;Houborg et al. (2023);Experiment 1;Orientation;1
3;109;113;4;0.833482600050047;10;27;182;Houborg et al. (2023);Experiment 1;Orientation;1
3;108;115;7;1.03368489997229;10;1;183;Houborg et al. (2023);Experiment 1;Orientation;1
3;40;53;13;1.00058220000938;10;68;184;Houborg et al. (2023);Experiment 1;Orientation;1
3;49;61;12;0.932107399974484;10;-9;185;Houborg et al. (2023);Experiment 1;Orientation;1
3;150;148;-2;1.18315299996175;10;79;186;Houborg et al. (2023);Experiment 1;Orientation;1
3;148;139;-9;1.01682359998813;10;2;187;Houborg et al. (2023);Experiment 1;Orientation;1
3;12;25;13;1.23454069998115;10;-44;188;Houborg et al. (2023);Experiment 1;Orientation;1
3;22;32;10;1.18437529995572;10;-10;189;Houborg et al. (2023);Experiment 1;Orientation;1
3;128;138;10;0.95037079998292;10;74;190;Houborg et al. (2023);Experiment 1;Orientation;1
3;175;168;-7;0.783825499995146;10;-47;191;Houborg et al. (2023);Experiment 1;Orientation;1
3;86;77;-9;2.016081400041;10;89;192;Houborg et al. (2023);Experiment 1;Orientation;1
3;72;76;4;1.11847050004872;10;14;193;Houborg et al. (2023);Experiment 1;Orientation;1
3;7;19;12;1.03442489996087;10;65;194;Houborg et al. (2023);Experiment 1;Orientation;1
3;43;27;-16;1.03400250000414;10;-36;195;Houborg et al. (2023);Experiment 1;Orientation;1
3;126;126;0;1.70024789997842;10;-83;196;Houborg et al. (2023);Experiment 1;Orientation;1
3;87;77;-10;2.33305300003849;10;39;197;Houborg et al. (2023);Experiment 1;Orientation;1
3;152;152;0;1.10083220002707;10;-65;198;Houborg et al. (2023);Experiment 1;Orientation;1
3;147;151;4;0.834449400019366;10;5;199;Houborg et al. (2023);Experiment 1;Orientation;1
3;35;47;12;1.08431120001478;10;-68;200;Houborg et al. (2023);Experiment 1;Orientation;1
4;169;162;-7;1.42788049999996;1;NaN;1;Houborg et al. (2023);Experiment 1;Orientation;1
4;50;41;-9;1.89584660000003;1;-61;2;Houborg et al. (2023);Experiment 1;Orientation;1
4;25;30;5;2.0787765;1;25;3;Houborg et al. (2023);Experiment 1;Orientation;1
4;157;158;1;2.47957079999998;1;48;4;Houborg et al. (2023);Experiment 1;Orientation;1
4;166;147;-19;2.07774330000001;1;-9;5;Houborg et al. (2023);Experiment 1;Orientation;1
4;167;157;-10;1.89515990000001;1;-1;6;Houborg et al. (2023);Experiment 1;Orientation;1
4;151;145;-6;1.0613042;1;16;7;Houborg et al. (2023);Experiment 1;Orientation;1
4;10;7;-3;1.71247959999994;1;-39;8;Houborg et al. (2023);Experiment 1;Orientation;1
4;173;170;-3;1.51157620000004;1;17;9;Houborg et al. (2023);Experiment 1;Orientation;1
4;159;153;-6;1.92914489999998;1;14;10;Houborg et al. (2023);Experiment 1;Orientation;1
4;86;80;-6;2.1293422;1;73;11;Houborg et al. (2023);Experiment 1;Orientation;1
4;101;114;13;3.43031810000002;1;-15;12;Houborg et al. (2023);Experiment 1;Orientation;1
4;119;121;2;2.52929270000004;1;-18;13;Houborg et al. (2023);Experiment 1;Orientation;1
4;130;131;1;2.27867300000003;1;-11;14;Houborg et al. (2023);Experiment 1;Orientation;1
4;87;83;-4;4.43034119999993;1;43;15;Houborg et al. (2023);Experiment 1;Orientation;1
4;112;120;8;2.0614693;1;-25;16;Houborg et al. (2023);Experiment 1;Orientation;1
4;80;83;3;2.9119968;1;32;17;Houborg et al. (2023);Experiment 1;Orientation;1
4;61;42;-19;3.14517649999993;1;19;18;Houborg et al. (2023);Experiment 1;Orientation;1
4;55;48;-7;2.47767240000007;1;6;19;Houborg et al. (2023);Experiment 1;Orientation;1
4;30;33;3;2.51183939999999;1;25;20;Houborg et al. (2023);Experiment 1;Orientation;1
4;132;138;6;1.71168;2;78;21;Houborg et al. (2023);Experiment 1;Orientation;1
4;162;153;-9;2.24519640000005;2;-30;22;Houborg et al. (2023);Experiment 1;Orientation;1
4;89;143;54;1.79637819999994;2;73;23;Houborg et al. (2023);Experiment 1;Orientation;1
4;124;138;14;3.41270240000006;2;-35;24;Houborg et al. (2023);Experiment 1;Orientation;1
4;86;73;-13;2.74635019999994;2;38;25;Houborg et al. (2023);Experiment 1;Orientation;1
4;53;44;-9;1.76247269999999;2;33;26;Houborg et al. (2023);Experiment 1;Orientation;1
4;100;105;5;1.56162340000003;2;-47;27;Houborg et al. (2023);Experiment 1;Orientation;1
4;61;60;-1;3.74750740000002;2;39;28;Houborg et al. (2023);Experiment 1;Orientation;1
4;108;119;11;1.81121259999998;2;-47;29;Houborg et al. (2023);Experiment 1;Orientation;1
4;42;42;0;1.59529049999992;2;66;30;Houborg et al. (2023);Experiment 1;Orientation;1
4;69;64;-5;2.87940079999998;2;-27;31;Houborg et al. (2023);Experiment 1;Orientation;1
4;122;125;3;2.31236279999996;2;-53;32;Houborg et al. (2023);Experiment 1;Orientation;1
4;95;121;26;1.44535059999998;2;27;33;Houborg et al. (2023);Experiment 1;Orientation;1
4;171;176;5;2.16258660000005;2;-76;34;Houborg et al. (2023);Experiment 1;Orientation;1
4;24;18;-6;1.61198990000003;2;-33;35;Houborg et al. (2023);Experiment 1;Orientation;1
4;4;5;1;2.32854369999995;2;20;36;Houborg et al. (2023);Experiment 1;Orientation;1
4;177;179;2;3.32940799999994;2;7;37;Houborg et al. (2023);Experiment 1;Orientation;1
4;115;123;8;2.47921819999999;2;62;38;Houborg et al. (2023);Experiment 1;Orientation;1
4;90;85;-5;2.44633769999996;2;25;39;Houborg et al. (2023);Experiment 1;Orientation;1
4;23;21;-2;1.67949659999999;2;67;40;Houborg et al. (2023);Experiment 1;Orientation;1
4;177;3;6;1.54442139999992;3;26;41;Houborg et al. (2023);Experiment 1;Orientation;1
4;164;164;0;2.97965160000001;3;13;42;Houborg et al. (2023);Experiment 1;Orientation;1
4;37;43;6;3.78057949999993;3;-53;43;Houborg et al. (2023);Experiment 1;Orientation;1
4;85;90;5;2.19640770000001;3;-48;44;Houborg et al. (2023);Experiment 1;Orientation;1
4;103;112;9;1.62839210000004;3;-18;45;Houborg et al. (2023);Experiment 1;Orientation;1
4;171;170;-1;1.39498760000004;3;-68;46;Houborg et al. (2023);Experiment 1;Orientation;1
4;14;9;-5;1.64499580000006;3;-23;47;Houborg et al. (2023);Experiment 1;Orientation;1
4;57;61;4;2.42906600000003;3;-43;48;Houborg et al. (2023);Experiment 1;Orientation;1
4;180;7;7;4.26427150000006;3;57;49;Houborg et al. (2023);Experiment 1;Orientation;1
4;8;178;-10;2.1791326;3;-8;50;Houborg et al. (2023);Experiment 1;Orientation;1
4;157;152;-5;1.5444569;3;31;51;Houborg et al. (2023);Experiment 1;Orientation;1
4;103;102;-1;2.47917010000003;3;54;52;Houborg et al. (2023);Experiment 1;Orientation;1
4;46;41;-5;3.32948170000009;3;57;53;Houborg et al. (2023);Experiment 1;Orientation;1
4;3;8;5;4.01381250000009;3;43;54;Houborg et al. (2023);Experiment 1;Orientation;1
4;46;53;7;2.62900979999995;3;-43;55;Houborg et al. (2023);Experiment 1;Orientation;1
4;164;171;7;2.42960679999987;3;62;56;Houborg et al. (2023);Experiment 1;Orientation;1
4;126;143;17;3.49747670000011;3;38;57;Houborg et al. (2023);Experiment 1;Orientation;1
4;126;122;-4;2.02849620000006;3;0;58;Houborg et al. (2023);Experiment 1;Orientation;1
4;51;43;-8;2.89606170000002;3;75;59;Houborg et al. (2023);Experiment 1;Orientation;1
4;13;7;-6;2.11248139999998;3;38;60;Houborg et al. (2023);Experiment 1;Orientation;1
4;49;55;6;2.84615829999984;4;-36;61;Houborg et al. (2023);Experiment 1;Orientation;1
4;52;62;10;1.67852859999994;4;-3;62;Houborg et al. (2023);Experiment 1;Orientation;1
4;150;148;-2;2.24575500000014;4;82;63;Houborg et al. (2023);Experiment 1;Orientation;1
4;150;153;3;3.06293099999994;4;0;64;Houborg et al. (2023);Experiment 1;Orientation;1
4;102;105;3;1.97895489999996;4;48;65;Houborg et al. (2023);Experiment 1;Orientation;1
4;56;65;9;2.27866229999995;4;46;66;Houborg et al. (2023);Experiment 1;Orientation;1
4;154;144;-10;3.12947910000003;4;82;67;Houborg et al. (2023);Experiment 1;Orientation;1
4;175;165;-10;4.89746849999983;4;-21;68;Houborg et al. (2023);Experiment 1;Orientation;1
4;140;150;10;2.98044770000001;4;35;69;Houborg et al. (2023);Experiment 1;Orientation;1
4;123;133;10;1.99582759999998;4;17;70;Houborg et al. (2023);Experiment 1;Orientation;1
4;102;108;6;1.91228460000002;4;21;71;Houborg et al. (2023);Experiment 1;Orientation;1
4;16;18;2;1.36151820000009;4;86;72;Houborg et al. (2023);Experiment 1;Orientation;1
4;34;35;1;2.36238930000013;4;-18;73;Houborg et al. (2023);Experiment 1;Orientation;1
4;98;106;8;2.56327109999984;4;-64;74;Houborg et al. (2023);Experiment 1;Orientation;1
4;178;176;-2;2.24638800000002;4;-80;75;Houborg et al. (2023);Experiment 1;Orientation;1
4;158;159;1;1.94534109999995;4;20;76;Houborg et al. (2023);Experiment 1;Orientation;1
4;64;52;-12;1.99485600000003;4;-86;77;Houborg et al. (2023);Experiment 1;Orientation;1
4;172;165;-7;2.39584519999994;4;72;78;Houborg et al. (2023);Experiment 1;Orientation;1
4;137;146;9;1.84477459999994;4;35;79;Houborg et al. (2023);Experiment 1;Orientation;1
4;41;42;1;1.72925910000004;4;-84;80;Houborg et al. (2023);Experiment 1;Orientation;1
4;22;17;-5;1.62825970000017;5;19;81;Houborg et al. (2023);Experiment 1;Orientation;1
4;41;36;-5;1.97903420000011;5;-19;82;Houborg et al. (2023);Experiment 1;Orientation;1
4;123;126;3;1.79493019999995;5;-82;83;Houborg et al. (2023);Experiment 1;Orientation;1
4;160;161;1;1.6436948999999;5;-37;84;Houborg et al. (2023);Experiment 1;Orientation;1
4;124;129;5;1.5449322999998;5;36;85;Houborg et al. (2023);Experiment 1;Orientation;1
4;163;174;11;1.82909919999997;5;-39;86;Houborg et al. (2023);Experiment 1;Orientation;1
4;171;174;3;1.8288371000001;5;-8;87;Houborg et al. (2023);Experiment 1;Orientation;1
4;171;170;-1;2.84565640000005;5;0;88;Houborg et al. (2023);Experiment 1;Orientation;1
4;167;169;2;2.22833680000008;5;4;89;Houborg et al. (2023);Experiment 1;Orientation;1
4;127;129;2;1.77873260000001;5;40;90;Houborg et al. (2023);Experiment 1;Orientation;1
4;120;123;3;1.21175079999989;5;7;91;Houborg et al. (2023);Experiment 1;Orientation;1
4;56;61;5;1.89533940000001;5;64;92;Houborg et al. (2023);Experiment 1;Orientation;1
4;134;141;7;0.960873600000014;5;-78;93;Houborg et al. (2023);Experiment 1;Orientation;1
4;81;73;-8;1.09513259999994;5;53;94;Houborg et al. (2023);Experiment 1;Orientation;1
4;78;72;-6;2.19624899999985;5;3;95;Houborg et al. (2023);Experiment 1;Orientation;1
4;64;66;2;1.52869149999992;5;14;96;Houborg et al. (2023);Experiment 1;Orientation;1
4;97;105;8;1.51095269999996;5;-33;97;Houborg et al. (2023);Experiment 1;Orientation;1
4;97;104;7;1.99575729999992;5;0;98;Houborg et al. (2023);Experiment 1;Orientation;1
4;99;98;-1;2.46262260000003;5;-2;99;Houborg et al. (2023);Experiment 1;Orientation;1
4;107;113;6;1.57807470000012;5;-8;100;Houborg et al. (2023);Experiment 1;Orientation;1
4;137;139;2;1.64502679999987;6;-30;101;Houborg et al. (2023);Experiment 1;Orientation;1
4;41;37;-4;1.9121176000001;6;-84;102;Houborg et al. (2023);Experiment 1;Orientation;1
4;27;32;5;1.42857719999984;6;14;103;Houborg et al. (2023);Experiment 1;Orientation;1
4;10;8;-2;1.92980130000001;6;17;104;Houborg et al. (2023);Experiment 1;Orientation;1
4;33;31;-2;1.44468410000013;6;-23;105;Houborg et al. (2023);Experiment 1;Orientation;1
4;119;127;8;2.09608979999985;6;-86;106;Houborg et al. (2023);Experiment 1;Orientation;1
4;42;38;-4;4.4479116;6;77;107;Houborg et al. (2023);Experiment 1;Orientation;1
4;164;161;-3;2.82955690000017;6;58;108;Houborg et al. (2023);Experiment 1;Orientation;1
4;172;168;-4;1.47753599999987;6;-8;109;Houborg et al. (2023);Experiment 1;Orientation;1
4;109;107;-2;2.62940260000005;6;63;110;Houborg et al. (2023);Experiment 1;Orientation;1
4;127;123;-4;1.67838559999996;6;-18;111;Houborg et al. (2023);Experiment 1;Orientation;1
4;135;131;-4;1.94452549999983;6;-8;112;Houborg et al. (2023);Experiment 1;Orientation;1
4;63;74;11;2.04350109999996;6;72;113;Houborg et al. (2023);Experiment 1;Orientation;1
4;37;32;-5;2.14552700000013;6;26;114;Houborg et al. (2023);Experiment 1;Orientation;1
4;161;171;10;3.5129379;6;56;115;Houborg et al. (2023);Experiment 1;Orientation;1
4;89;93;4;3.49654869999995;6;72;116;Houborg et al. (2023);Experiment 1;Orientation;1
4;9;17;8;2.11253110000007;6;80;117;Houborg et al. (2023);Experiment 1;Orientation;1
4;57;65;8;2.69567480000001;6;-48;118;Houborg et al. (2023);Experiment 1;Orientation;1
4;24;47;23;1.89479340000003;6;33;119;Houborg et al. (2023);Experiment 1;Orientation;1
4;107;120;13;2.27861609999991;6;-83;120;Houborg et al. (2023);Experiment 1;Orientation;1
4;90;83;-7;2.46226840000008;7;17;121;Houborg et al. (2023);Experiment 1;Orientation;1
4;109;117;8;1.59494240000004;7;-19;122;Houborg et al. (2023);Experiment 1;Orientation;1
4;118;122;4;1.8791005999999;7;-9;123;Houborg et al. (2023);Experiment 1;Orientation;1
4;80;85;5;2.36215730000004;7;38;124;Houborg et al. (2023);Experiment 1;Orientation;1
4;73;73;0;4.41429559999983;7;7;125;Houborg et al. (2023);Experiment 1;Orientation;1
4;95;100;5;1.66235200000006;7;-22;126;Houborg et al. (2023);Experiment 1;Orientation;1
4;153;129;-24;2.47871480000003;7;-58;127;Houborg et al. (2023);Experiment 1;Orientation;1
4;3;11;8;1.97890800000005;7;-30;128;Houborg et al. (2023);Experiment 1;Orientation;1
4;137;136;-1;2.62915480000015;7;46;129;Houborg et al. (2023);Experiment 1;Orientation;1
4;153;146;-7;2.11233719999996;7;-16;130;Houborg et al. (2023);Experiment 1;Orientation;1
4;71;65;-6;2.61272899999994;7;82;131;Houborg et al. (2023);Experiment 1;Orientation;1
4;129;136;7;1.84489680000001;7;-58;132;Houborg et al. (2023);Experiment 1;Orientation;1
4;14;23;9;3.37995999999998;7;-65;133;Houborg et al. (2023);Experiment 1;Orientation;1
4;93;98;5;1.92933679999987;7;-79;134;Houborg et al. (2023);Experiment 1;Orientation;1
4;180;8;8;2.86306930000001;7;-87;135;Houborg et al. (2023);Experiment 1;Orientation;1
4;22;31;9;2.44557150000014;7;-22;136;Houborg et al. (2023);Experiment 1;Orientation;1
4;164;167;3;1.99545669999998;7;38;137;Houborg et al. (2023);Experiment 1;Orientation;1
4;22;39;17;1.51213540000003;7;-38;138;Houborg et al. (2023);Experiment 1;Orientation;1
4;20;19;-1;3.17974580000009;7;2;139;Houborg et al. (2023);Experiment 1;Orientation;1
4;24;20;-4;1.96215000000007;7;-4;140;Houborg et al. (2023);Experiment 1;Orientation;1
4;120;121;1;1.72843239999997;8;84;141;Houborg et al. (2023);Experiment 1;Orientation;1
4;45;41;-4;1.72809779999989;8;75;142;Houborg et al. (2023);Experiment 1;Orientation;1
4;134;137;3;1.46221719999994;8;-89;143;Houborg et al. (2023);Experiment 1;Orientation;1
4;40;42;2;2.14576000000011;8;-86;144;Houborg et al. (2023);Experiment 1;Orientation;1
4;173;172;-1;1.31116229999998;8;47;145;Houborg et al. (2023);Experiment 1;Orientation;1
4;86;82;-4;2.67937940000002;8;87;146;Houborg et al. (2023);Experiment 1;Orientation;1
4;130;136;6;1.79521839999984;8;-44;147;Houborg et al. (2023);Experiment 1;Orientation;1
4;141;144;3;1.66238750000002;8;-11;148;Houborg et al. (2023);Experiment 1;Orientation;1
4;46;50;4;1.84485059999997;8;-85;149;Houborg et al. (2023);Experiment 1;Orientation;1
4;33;27;-6;1.44454040000005;8;13;150;Houborg et al. (2023);Experiment 1;Orientation;1
4;71;71;0;1.96108909999998;8;-38;151;Houborg et al. (2023);Experiment 1;Orientation;1
4;20;15;-5;1.94576289999986;8;51;152;Houborg et al. (2023);Experiment 1;Orientation;1
4;86;77;-9;1.9455038000001;8;-66;153;Houborg et al. (2023);Experiment 1;Orientation;1
4;17;21;4;1.47818300000017;8;69;154;Houborg et al. (2023);Experiment 1;Orientation;1
4;96;105;9;2.21223320000036;8;-79;155;Houborg et al. (2023);Experiment 1;Orientation;1
4;38;19;-19;1.67885859999978;8;58;156;Houborg et al. (2023);Experiment 1;Orientation;1
4;113;124;11;1.9458995;8;-75;157;Houborg et al. (2023);Experiment 1;Orientation;1
4;141;143;2;2.76241889999983;8;-28;158;Houborg et al. (2023);Experiment 1;Orientation;1
4;6;17;11;2.64583060000041;8;-45;159;Houborg et al. (2023);Experiment 1;Orientation;1
4;106;112;6;2.19541750000008;8;80;160;Houborg et al. (2023);Experiment 1;Orientation;1
4;68;58;-10;1.57850540000027;9;38;161;Houborg et al. (2023);Experiment 1;Orientation;1
4;168;172;4;1.26098060000004;9;80;162;Houborg et al. (2023);Experiment 1;Orientation;1
4;11;15;4;1.59534739999981;9;-23;163;Houborg et al. (2023);Experiment 1;Orientation;1
4;125;125;0;2.49599940000007;9;66;164;Houborg et al. (2023);Experiment 1;Orientation;1
4;76;58;-18;2.59594440000001;9;49;165;Houborg et al. (2023);Experiment 1;Orientation;1
4;90;83;-7;3.09644539999999;9;-14;166;Houborg et al. (2023);Experiment 1;Orientation;1
4;169;169;0;2.2291922999998;9;-79;167;Houborg et al. (2023);Experiment 1;Orientation;1
4;44;36;-8;1.27791969999998;9;-55;168;Houborg et al. (2023);Experiment 1;Orientation;1
4;93;90;-3;1.96233619999975;9;-49;169;Houborg et al. (2023);Experiment 1;Orientation;1
4;5;11;6;1.12824169999976;9;88;170;Houborg et al. (2023);Experiment 1;Orientation;1
4;146;145;-1;1.37843770000018;9;39;171;Houborg et al. (2023);Experiment 1;Orientation;1
4;130;135;5;1.36148570000023;9;16;172;Houborg et al. (2023);Experiment 1;Orientation;1
4;145;146;1;1.06075620000001;9;-15;173;Houborg et al. (2023);Experiment 1;Orientation;1
4;175;173;-2;1.69532429999981;9;-30;174;Houborg et al. (2023);Experiment 1;Orientation;1
4;111;117;6;1.9788523000002;9;64;175;Houborg et al. (2023);Experiment 1;Orientation;1
4;30;23;-7;1.7616895000001;9;81;176;Houborg et al. (2023);Experiment 1;Orientation;1
4;116;106;-10;2.89700620000031;9;-86;177;Houborg et al. (2023);Experiment 1;Orientation;1
4;155;160;5;1.3779485;9;-39;178;Houborg et al. (2023);Experiment 1;Orientation;1
4;168;157;-11;1.04430620000039;9;-13;179;Houborg et al. (2023);Experiment 1;Orientation;1
4;105;115;10;1.57797279999977;9;63;180;Houborg et al. (2023);Experiment 1;Orientation;1
4;11;9;-2;2.29538950000006;10;-86;181;Houborg et al. (2023);Experiment 1;Orientation;1
4;29;35;6;2.24505330000011;10;-18;182;Houborg et al. (2023);Experiment 1;Orientation;1
4;103;109;6;1.54578119999996;10;-74;183;Houborg et al. (2023);Experiment 1;Orientation;1
4;15;21;6;2.22774560000016;10;88;184;Houborg et al. (2023);Experiment 1;Orientation;1
4;115;117;2;2.06183279999959;10;80;185;Houborg et al. (2023);Experiment 1;Orientation;1
4;6;9;3;1.2102745000002;10;-71;186;Houborg et al. (2023);Experiment 1;Orientation;1
4;20;22;2;1.46180679999998;10;-14;187;Houborg et al. (2023);Experiment 1;Orientation;1
4;130;120;-10;0.977897700000085;10;70;188;Houborg et al. (2023);Experiment 1;Orientation;1
4;100;99;-1;1.44580749999977;10;30;189;Houborg et al. (2023);Experiment 1;Orientation;1
4;70;63;-7;1.36146360000021;10;30;190;Houborg et al. (2023);Experiment 1;Orientation;1
4;87;79;-8;0.995317299999897;10;-17;191;Houborg et al. (2023);Experiment 1;Orientation;1
4;33;23;-10;1.44516799999974;10;54;192;Houborg et al. (2023);Experiment 1;Orientation;1
4;77;72;-5;1.74500330000001;10;-44;193;Houborg et al. (2023);Experiment 1;Orientation;1
4;76;77;1;1.3780999999999;10;1;194;Houborg et al. (2023);Experiment 1;Orientation;1
4;22;29;7;1.52720980000004;10;54;195;Houborg et al. (2023);Experiment 1;Orientation;1
4;26;27;1;1.14526880000039;10;-4;196;Houborg et al. (2023);Experiment 1;Orientation;1
4;95;110;15;1.36089749999974;10;-69;197;Houborg et al. (2023);Experiment 1;Orientation;1
4;60;58;-2;2.11245809999991;10;35;198;Houborg et al. (2023);Experiment 1;Orientation;1
4;11;17;6;1.3282677000002;10;49;199;Houborg et al. (2023);Experiment 1;Orientation;1
4;129;142;13;2.02904350000017;10;62;200;Houborg et al. (2023);Experiment 1;Orientation;1
5;33;14;-19;3.01213250029832;1;NaN;1;Houborg et al. (2023);Experiment 1;Orientation;1
5;9;10;1;8.6335629997775;1;24;2;Houborg et al. (2023);Experiment 1;Orientation;1
5;131;137;6;3.47913230024278;1;58;3;Houborg et al. (2023);Experiment 1;Orientation;1
5;63;56;-7;4.91362220002338;1;68;4;Houborg et al. (2023);Experiment 1;Orientation;1
5;119;132;13;6.01482339994982;1;-56;5;Houborg et al. (2023);Experiment 1;Orientation;1
5;70;57;-13;3.61270940024406;1;49;6;Houborg et al. (2023);Experiment 1;Orientation;1
5;113;106;-7;2.06231089960784;1;-43;7;Houborg et al. (2023);Experiment 1;Orientation;1
5;4;12;8;2.29481879994273;1;-71;8;Houborg et al. (2023);Experiment 1;Orientation;1
5;164;156;-8;1.82776900008321;1;20;9;Houborg et al. (2023);Experiment 1;Orientation;1
5;145;156;11;3.12895120028406;1;19;10;Houborg et al. (2023);Experiment 1;Orientation;1
5;135;135;0;3.69612949993461;1;10;11;Houborg et al. (2023);Experiment 1;Orientation;1
5;147;146;-1;3.76296949991956;1;-12;12;Houborg et al. (2023);Experiment 1;Orientation;1
5;69;65;-4;2.34491450013593;1;78;13;Houborg et al. (2023);Experiment 1;Orientation;1
5;112;117;5;2.29489579983056;1;-43;14;Houborg et al. (2023);Experiment 1;Orientation;1
5;104;113;9;2.42837859969586;1;8;15;Houborg et al. (2023);Experiment 1;Orientation;1
5;96;103;7;2.89547730004415;1;8;16;Houborg et al. (2023);Experiment 1;Orientation;1
5;50;66;16;1.99457510001957;1;46;17;Houborg et al. (2023);Experiment 1;Orientation;1
5;45;54;9;2.24472540011629;1;5;18;Houborg et al. (2023);Experiment 1;Orientation;1
5;82;77;-5;2.37835470028222;1;-37;19;Houborg et al. (2023);Experiment 1;Orientation;1
5;41;39;-2;1.4275068002753;1;41;20;Houborg et al. (2023);Experiment 1;Orientation;1
5;145;143;-2;1.82782229967415;2;76;21;Houborg et al. (2023);Experiment 1;Orientation;1
5;178;167;-11;4.41329799965024;2;-33;22;Houborg et al. (2023);Experiment 1;Orientation;1
5;6;19;13;12.3698062999174;2;-8;23;Houborg et al. (2023);Experiment 1;Orientation;1
5;97;105;8;2.2450939998962;2;89;24;Houborg et al. (2023);Experiment 1;Orientation;1
5;16;16;0;2.17812830023468;2;81;25;Houborg et al. (2023);Experiment 1;Orientation;1
5;145;147;2;3.99626229982823;2;51;26;Houborg et al. (2023);Experiment 1;Orientation;1
5;179;174;-5;6.93198500014842;2;-34;27;Houborg et al. (2023);Experiment 1;Orientation;1
5;13;16;3;2.74525619996712;2;-14;28;Houborg et al. (2023);Experiment 1;Orientation;1
5;170;163;-7;2.37833720026538;2;23;29;Houborg et al. (2023);Experiment 1;Orientation;1
5;4;12;8;3.02895959978923;2;-14;30;Houborg et al. (2023);Experiment 1;Orientation;1
5;124;130;6;2.71187000023201;2;60;31;Houborg et al. (2023);Experiment 1;Orientation;1
5;142;145;3;2.17821059981361;2;-18;32;Houborg et al. (2023);Experiment 1;Orientation;1
5;97;107;10;3.56265169987455;2;45;33;Houborg et al. (2023);Experiment 1;Orientation;1
5;160;155;-5;2.41145909996703;2;-63;34;Houborg et al. (2023);Experiment 1;Orientation;1
5;162;145;-17;2.16177729982883;2;-2;35;Houborg et al. (2023);Experiment 1;Orientation;1
5;113;115;2;1.94475949974731;2;49;36;Houborg et al. (2023);Experiment 1;Orientation;1
5;25;34;9;4.14646189985797;2;88;37;Houborg et al. (2023);Experiment 1;Orientation;1
5;40;32;-8;1.22719720005989;2;-15;38;Houborg et al. (2023);Experiment 1;Orientation;1
5;33;41;8;1.74462000001222;2;7;39;Houborg et al. (2023);Experiment 1;Orientation;1
5;8;23;15;2.06145359994844;2;25;40;Houborg et al. (2023);Experiment 1;Orientation;1
5;20;21;1;2.52851229999214;3;-12;41;Houborg et al. (2023);Experiment 1;Orientation;1
5;111;117;6;1.77760779997334;3;89;42;Houborg et al. (2023);Experiment 1;Orientation;1
5;170;162;-8;2.76204389985651;3;-59;43;Houborg et al. (2023);Experiment 1;Orientation;1
5;64;64;0;1.67762289987877;3;-74;44;Houborg et al. (2023);Experiment 1;Orientation;1
5;74;73;-1;1.51082880003378;3;-10;45;Houborg et al. (2023);Experiment 1;Orientation;1
5;178;167;-11;4.063145800028;3;76;46;Houborg et al. (2023);Experiment 1;Orientation;1
5;171;158;-13;3.02899130014703;3;7;47;Houborg et al. (2023);Experiment 1;Orientation;1
5;122;131;9;2.67837690003216;3;49;48;Houborg et al. (2023);Experiment 1;Orientation;1
5;178;168;-10;2.76182699995115;3;-56;49;Houborg et al. (2023);Experiment 1;Orientation;1
5;139;13;54;5.79752240004018;3;39;50;Houborg et al. (2023);Experiment 1;Orientation;1
5;61;61;0;2.64523210003972;3;78;51;Houborg et al. (2023);Experiment 1;Orientation;1
5;120;120;0;3.16235469980165;3;-59;52;Houborg et al. (2023);Experiment 1;Orientation;1
5;44;59;15;1.9114474998787;3;76;53;Houborg et al. (2023);Experiment 1;Orientation;1
5;54;55;1;1.96135989995673;3;-10;54;Houborg et al. (2023);Experiment 1;Orientation;1
5;123;145;22;1.54424190009013;3;-69;55;Houborg et al. (2023);Experiment 1;Orientation;1
5;96;106;10;2.91220749961212;3;27;56;Houborg et al. (2023);Experiment 1;Orientation;1
5;75;66;-9;5.68105609994382;3;21;57;Houborg et al. (2023);Experiment 1;Orientation;1
5;109;111;2;1.92735549993813;3;-34;58;Houborg et al. (2023);Experiment 1;Orientation;1
5;136;128;-8;2.11140570044518;3;-27;59;Houborg et al. (2023);Experiment 1;Orientation;1
5;106;108;2;1.2273522997275;3;30;60;Houborg et al. (2023);Experiment 1;Orientation;1
5;100;108;8;2.36175599973649;4;6;61;Houborg et al. (2023);Experiment 1;Orientation;1
5;106;115;9;2.07803429989144;4;-6;62;Houborg et al. (2023);Experiment 1;Orientation;1
5;93;109;16;2.26208369992673;4;13;63;Houborg et al. (2023);Experiment 1;Orientation;1
5;15;20;5;1.46098269987851;4;78;64;Houborg et al. (2023);Experiment 1;Orientation;1
5;130;153;23;2.54517979966477;4;65;65;Houborg et al. (2023);Experiment 1;Orientation;1
5;180;3;3;6.46498070005327;4;-50;66;Houborg et al. (2023);Experiment 1;Orientation;1
5;64;67;3;2.17827769974247;4;-64;67;Houborg et al. (2023);Experiment 1;Orientation;1
5;175;154;-21;3.19551720004529;4;69;68;Houborg et al. (2023);Experiment 1;Orientation;1
5;63;72;9;3.54595059994608;4;-68;69;Houborg et al. (2023);Experiment 1;Orientation;1
5;160;154;-6;2.77894010022283;4;83;70;Houborg et al. (2023);Experiment 1;Orientation;1
5;82;79;-3;4.42995190015063;4;78;71;Houborg et al. (2023);Experiment 1;Orientation;1
5;75;67;-8;1.39411159977317;4;7;72;Houborg et al. (2023);Experiment 1;Orientation;1
5;40;35;-5;4.49691129988059;4;35;73;Houborg et al. (2023);Experiment 1;Orientation;1
5;23;22;-1;1.82782710017636;4;17;74;Houborg et al. (2023);Experiment 1;Orientation;1
5;56;32;-24;3.26229480002075;4;-33;75;Houborg et al. (2023);Experiment 1;Orientation;1
5;131;115;-16;3.52919649984688;4;-75;76;Houborg et al. (2023);Experiment 1;Orientation;1
5;141;130;-11;3.74583850009367;4;-10;77;Houborg et al. (2023);Experiment 1;Orientation;1
5;125;122;-3;3.79625579994172;4;16;78;Houborg et al. (2023);Experiment 1;Orientation;1
5;2;14;12;2.89514050027356;4;-57;79;Houborg et al. (2023);Experiment 1;Orientation;1
5;152;33;61;8.08287739986554;4;30;80;Houborg et al. (2023);Experiment 1;Orientation;1
5;167;162;-5;1.7943311999552;5;-15;81;Houborg et al. (2023);Experiment 1;Orientation;1
5;139;148;9;1.44447440002114;5;28;82;Houborg et al. (2023);Experiment 1;Orientation;1
5;8;15;7;2.87871679989621;5;-49;83;Houborg et al. (2023);Experiment 1;Orientation;1
5;69;74;5;3.4626472000964;5;-61;84;Houborg et al. (2023);Experiment 1;Orientation;1
5;127;121;-6;1.76118589984253;5;-58;85;Houborg et al. (2023);Experiment 1;Orientation;1
5;132;123;-9;4.59657120006159;5;-5;86;Houborg et al. (2023);Experiment 1;Orientation;1
5;41;49;8;1.47781449975446;5;-89;87;Houborg et al. (2023);Experiment 1;Orientation;1
5;49;42;-7;3.94638710003346;5;-8;88;Houborg et al. (2023);Experiment 1;Orientation;1
5;122;115;-7;2.22823469992727;5;-73;89;Houborg et al. (2023);Experiment 1;Orientation;1
5;86;89;3;3.32879769988358;5;36;90;Houborg et al. (2023);Experiment 1;Orientation;1
5;113;107;-6;2.66207329975441;5;-27;91;Houborg et al. (2023);Experiment 1;Orientation;1
5;43;33;-10;2.59508210001513;5;70;92;Houborg et al. (2023);Experiment 1;Orientation;1
5;32;37;5;1.57763519976288;5;11;93;Houborg et al. (2023);Experiment 1;Orientation;1
5;150;158;8;3.37931820005178;5;62;94;Houborg et al. (2023);Experiment 1;Orientation;1
5;139;148;9;5.09721620008349;5;11;95;Houborg et al. (2023);Experiment 1;Orientation;1
5;169;155;-14;2.44513370003551;5;-30;96;Houborg et al. (2023);Experiment 1;Orientation;1
5;20;26;6;4.02950649987906;5;-31;97;Houborg et al. (2023);Experiment 1;Orientation;1
5;33;30;-3;2.36161160003394;5;-13;98;Houborg et al. (2023);Experiment 1;Orientation;1
5;18;22;4;1.84449219983071;5;15;99;Houborg et al. (2023);Experiment 1;Orientation;1
5;89;79;-10;2.64515340002254;5;-71;100;Houborg et al. (2023);Experiment 1;Orientation;1
5;35;30;-5;1.57763620000333;6;54;101;Houborg et al. (2023);Experiment 1;Orientation;1
5;162;162;0;2.71183389984071;6;53;102;Houborg et al. (2023);Experiment 1;Orientation;1
5;18;27;9;2.51184289995581;6;-36;103;Houborg et al. (2023);Experiment 1;Orientation;1
5;8;18;10;3.74612609995529;6;10;104;Houborg et al. (2023);Experiment 1;Orientation;1
5;101;110;9;5.01388309989125;6;87;105;Houborg et al. (2023);Experiment 1;Orientation;1
5;140;123;-17;5.31424910016358;6;-39;106;Houborg et al. (2023);Experiment 1;Orientation;1
5;57;62;5;1.86103400029242;6;83;107;Houborg et al. (2023);Experiment 1;Orientation;1
5;33;62;29;2.29490210022777;6;24;108;Houborg et al. (2023);Experiment 1;Orientation;1
5;62;54;-8;1.99489279976115;6;-29;109;Houborg et al. (2023);Experiment 1;Orientation;1
5;38;71;33;1.74432259984314;6;24;110;Houborg et al. (2023);Experiment 1;Orientation;1
5;92;87;-5;6.31480660010129;6;-54;111;Houborg et al. (2023);Experiment 1;Orientation;1
5;164;154;-10;2.8286766000092;6;-72;112;Houborg et al. (2023);Experiment 1;Orientation;1
5;114;118;4;2.29497230006382;6;50;113;Houborg et al. (2023);Experiment 1;Orientation;1
5;19;14;-5;4.42999480012804;6;-85;114;Houborg et al. (2023);Experiment 1;Orientation;1
5;71;57;-14;1.77782960003242;6;-52;115;Houborg et al. (2023);Experiment 1;Orientation;1
5;10;15;5;4.02966300025582;6;61;116;Houborg et al. (2023);Experiment 1;Orientation;1
5;91;92;1;5.98111569974571;6;-81;117;Houborg et al. (2023);Experiment 1;Orientation;1
5;78;73;-5;3.92941200034693;6;13;118;Houborg et al. (2023);Experiment 1;Orientation;1
5;180;16;16;9.15072389971465;6;78;119;Houborg et al. (2023);Experiment 1;Orientation;1
5;147;152;5;4.73030610010028;6;33;120;Houborg et al. (2023);Experiment 1;Orientation;1
5;88;92;4;3.42950389999896;7;59;121;Houborg et al. (2023);Experiment 1;Orientation;1
5;162;168;6;2.46155899995938;7;-74;122;Houborg et al. (2023);Experiment 1;Orientation;1
5;25;32;7;2.56208180030808;7;-43;123;Houborg et al. (2023);Experiment 1;Orientation;1
5;71;67;-4;2.49499640008435;7;-46;124;Houborg et al. (2023);Experiment 1;Orientation;1
5;167;156;-11;4.8971400000155;7;84;125;Houborg et al. (2023);Experiment 1;Orientation;1
5;166;151;-15;2.0780961997807;7;1;126;Houborg et al. (2023);Experiment 1;Orientation;1
5;129;145;16;5.01380529999733;7;37;127;Houborg et al. (2023);Experiment 1;Orientation;1
5;112;119;7;4.83023410011083;7;17;128;Houborg et al. (2023);Experiment 1;Orientation;1
5;62;62;0;2.62856450024992;7;50;129;Houborg et al. (2023);Experiment 1;Orientation;1
5;169;159;-10;3.46246209973469;7;73;130;Houborg et al. (2023);Experiment 1;Orientation;1
5;23;11;-12;2.01142500014976;7;-34;131;Houborg et al. (2023);Experiment 1;Orientation;1
5;132;161;29;6.86537480028346;7;71;132;Houborg et al. (2023);Experiment 1;Orientation;1
5;117;114;-3;4.39679510006681;7;15;133;Houborg et al. (2023);Experiment 1;Orientation;1
5;150;159;9;3.92964500002563;7;-33;134;Houborg et al. (2023);Experiment 1;Orientation;1
5;72;49;-23;3.66274189995602;7;78;135;Houborg et al. (2023);Experiment 1;Orientation;1
5;135;157;22;5.53080020006746;7;-63;136;Houborg et al. (2023);Experiment 1;Orientation;1
5;151;148;-3;1.99478089995682;7;-16;137;Houborg et al. (2023);Experiment 1;Orientation;1
5;59;58;-1;2.66176669998094;7;-88;138;Houborg et al. (2023);Experiment 1;Orientation;1
5;100;101;1;1.69447629991919;7;-41;139;Houborg et al. (2023);Experiment 1;Orientation;1
5;177;178;1;5.08049979992211;7;-77;140;Houborg et al. (2023);Experiment 1;Orientation;1
5;99;114;15;1.49421430006623;8;78;141;Houborg et al. (2023);Experiment 1;Orientation;1
5;60;41;-19;2.14469159999862;8;39;142;Houborg et al. (2023);Experiment 1;Orientation;1
5;112;108;-4;2.04468199983239;8;-52;143;Houborg et al. (2023);Experiment 1;Orientation;1
5;65;60;-5;1.76110559981316;8;47;144;Houborg et al. (2023);Experiment 1;Orientation;1
5;137;155;18;3.62924800021574;8;-72;145;Houborg et al. (2023);Experiment 1;Orientation;1
5;75;70;-5;2.62833119975403;8;62;146;Houborg et al. (2023);Experiment 1;Orientation;1
5;89;92;3;1.61106369970366;8;-14;147;Houborg et al. (2023);Experiment 1;Orientation;1
5;126;113;-13;1.81130130030215;8;-37;148;Houborg et al. (2023);Experiment 1;Orientation;1
5;176;165;-11;3.19547910010442;8;-50;149;Houborg et al. (2023);Experiment 1;Orientation;1
5;59;63;4;2.92852419987321;8;-63;150;Houborg et al. (2023);Experiment 1;Orientation;1
5;151;151;0;2.84550769999623;8;88;151;Houborg et al. (2023);Experiment 1;Orientation;1
5;134;144;10;2.99528650008142;8;17;152;Houborg et al. (2023);Experiment 1;Orientation;1
5;172;165;-7;4.52999250032008;8;-38;153;Houborg et al. (2023);Experiment 1;Orientation;1
5;6;16;10;3.39579749992117;8;-14;154;Houborg et al. (2023);Experiment 1;Orientation;1
5;65;67;2;2.24478509975597;8;-59;155;Houborg et al. (2023);Experiment 1;Orientation;1
5;120;117;-3;3.37891199998558;8;-55;156;Houborg et al. (2023);Experiment 1;Orientation;1
5;51;55;4;3.61281890003011;8;69;157;Houborg et al. (2023);Experiment 1;Orientation;1
5;42;40;-2;2.41182259982452;8;9;158;Houborg et al. (2023);Experiment 1;Orientation;1
5;129;131;2;3.62927749985829;8;-87;159;Houborg et al. (2023);Experiment 1;Orientation;1
5;113;119;6;4.29664919991046;8;16;160;Houborg et al. (2023);Experiment 1;Orientation;1
5;107;109;2;1.9946046997793;9;6;161;Houborg et al. (2023);Experiment 1;Orientation;1
5;119;114;-5;2.42839979985729;9;-12;162;Houborg et al. (2023);Experiment 1;Orientation;1
5;9;23;14;1.89454180002213;9;-70;163;Houborg et al. (2023);Experiment 1;Orientation;1
5;63;56;-7;2.17822929983959;9;-54;164;Houborg et al. (2023);Experiment 1;Orientation;1
5;82;74;-8;1.91118440032005;9;-19;165;Houborg et al. (2023);Experiment 1;Orientation;1
5;44;50;6;3.11238049995154;9;38;166;Houborg et al. (2023);Experiment 1;Orientation;1
5;129;140;11;2.24484089994803;9;-85;167;Houborg et al. (2023);Experiment 1;Orientation;1
5;155;156;1;3.22897619986907;9;-26;168;Houborg et al. (2023);Experiment 1;Orientation;1
5;51;48;-3;3.96282989997417;9;-76;169;Houborg et al. (2023);Experiment 1;Orientation;1
5;132;132;0;4.46362370019779;9;-81;170;Houborg et al. (2023);Experiment 1;Orientation;1
5;25;23;-2;2.56171299982816;9;-73;171;Houborg et al. (2023);Experiment 1;Orientation;1
5;151;159;8;4.64673569984734;9;54;172;Houborg et al. (2023);Experiment 1;Orientation;1
5;25;23;-2;4.83038609987125;9;-54;173;Houborg et al. (2023);Experiment 1;Orientation;1
5;106;105;-1;2.29482820024714;9;-81;174;Houborg et al. (2023);Experiment 1;Orientation;1
5;66;76;10;5.41178230009973;9;40;175;Houborg et al. (2023);Experiment 1;Orientation;1
5;146;152;6;2.11159959994256;9;-80;176;Houborg et al. (2023);Experiment 1;Orientation;1
5;91;84;-7;2.86201710021123;9;55;177;Houborg et al. (2023);Experiment 1;Orientation;1
5;89;92;3;2.77859520027414;9;2;178;Houborg et al. (2023);Experiment 1;Orientation;1
5;158;159;1;1.61084439978004;9;-69;179;Houborg et al. (2023);Experiment 1;Orientation;1
5;64;64;0;2.86188340000808;9;-86;180;Houborg et al. (2023);Experiment 1;Orientation;1
5;81;73;-8;1.99476990010589;10;-17;181;Houborg et al. (2023);Experiment 1;Orientation;1
5;174;178;4;1.91132570011541;10;87;182;Houborg et al. (2023);Experiment 1;Orientation;1
5;8;9;1;1.94465439999476;10;-14;183;Houborg et al. (2023);Experiment 1;Orientation;1
5;176;173;-3;1.84475790010765;10;12;184;Houborg et al. (2023);Experiment 1;Orientation;1
5;35;64;29;3.57949309982359;10;-39;185;Houborg et al. (2023);Experiment 1;Orientation;1
5;121;114;-7;5.36391940014437;10;-86;186;Houborg et al. (2023);Experiment 1;Orientation;1
5;106;112;6;1.59447640040889;10;15;187;Houborg et al. (2023);Experiment 1;Orientation;1
5;122;128;6;2.12802379997447;10;-16;188;Houborg et al. (2023);Experiment 1;Orientation;1
5;65;63;-2;1.86125050019473;10;57;189;Houborg et al. (2023);Experiment 1;Orientation;1
5;112;112;0;2.41175680002198;10;-47;190;Houborg et al. (2023);Experiment 1;Orientation;1
5;147;135;-12;3.44586739968508;10;-35;191;Houborg et al. (2023);Experiment 1;Orientation;1
5;4;8;4;2.2279986999929;10;-37;192;Houborg et al. (2023);Experiment 1;Orientation;1
5;16;25;9;2.11139200022444;10;-12;193;Houborg et al. (2023);Experiment 1;Orientation;1
5;176;167;-9;4.59672309970483;10;20;194;Houborg et al. (2023);Experiment 1;Orientation;1
5;118;133;15;2.84546889970079;10;58;195;Houborg et al. (2023);Experiment 1;Orientation;1
5;42;39;-3;3.07886119978502;10;76;196;Houborg et al. (2023);Experiment 1;Orientation;1
5;73;65;-8;1.97791310027242;10;-31;197;Houborg et al. (2023);Experiment 1;Orientation;1
5;22;26;4;3.41241259966046;10;51;198;Houborg et al. (2023);Experiment 1;Orientation;1
5;49;52;3;3.11219949973747;10;-27;199;Houborg et al. (2023);Experiment 1;Orientation;1
5;47;47;0;2.94550229981542;10;2;200;Houborg et al. (2023);Experiment 1;Orientation;1
6;33;103;70;2.52867190027609;1;NaN;1;Houborg et al. (2023);Experiment 1;Orientation;1
6;9;22;13;2.32824360020459;1;24;2;Houborg et al. (2023);Experiment 1;Orientation;1
6;131;135;4;2.24515260010958;1;58;3;Houborg et al. (2023);Experiment 1;Orientation;1
6;63;40;-23;3.27917960006744;1;68;4;Houborg et al. (2023);Experiment 1;Orientation;1
6;119;128;9;3.94646320026368;1;-56;5;Houborg et al. (2023);Experiment 1;Orientation;1
6;70;64;-6;1.42799040023237;1;49;6;Houborg et al. (2023);Experiment 1;Orientation;1
6;113;117;4;1.94521829998121;1;-43;7;Houborg et al. (2023);Experiment 1;Orientation;1
6;4;170;-14;4.51364200003445;1;-71;8;Houborg et al. (2023);Experiment 1;Orientation;1
6;164;146;-18;2.11169049981982;1;20;9;Houborg et al. (2023);Experiment 1;Orientation;1
6;145;148;3;1.44437000015751;1;19;10;Houborg et al. (2023);Experiment 1;Orientation;1
6;135;134;-1;1.39425730006769;1;10;11;Houborg et al. (2023);Experiment 1;Orientation;1
6;147;141;-6;1.72782000014558;1;-12;12;Houborg et al. (2023);Experiment 1;Orientation;1
6;69;119;50;4.54685909999534;1;78;13;Houborg et al. (2023);Experiment 1;Orientation;1
6;112;116;4;2.71208180021495;1;-43;14;Houborg et al. (2023);Experiment 1;Orientation;1
6;104;92;-12;1.94493590015918;1;8;15;Houborg et al. (2023);Experiment 1;Orientation;1
6;96;93;-3;1.76108750002459;1;8;16;Houborg et al. (2023);Experiment 1;Orientation;1
6;50;75;25;2.62881520017982;1;46;17;Houborg et al. (2023);Experiment 1;Orientation;1
6;45;58;13;2.71213909983635;1;5;18;Houborg et al. (2023);Experiment 1;Orientation;1
6;82;86;4;2.22823539981619;1;-37;19;Houborg et al. (2023);Experiment 1;Orientation;1
6;41;56;15;3.04642249969766;1;41;20;Houborg et al. (2023);Experiment 1;Orientation;1
6;145;113;-32;1.77798579959199;2;76;21;Houborg et al. (2023);Experiment 1;Orientation;1
6;178;176;-2;2.89570929994807;2;-33;22;Houborg et al. (2023);Experiment 1;Orientation;1
6;6;10;4;4.88059969991446;2;-8;23;Houborg et al. (2023);Experiment 1;Orientation;1
6;97;96;-1;2.12853620015085;2;89;24;Houborg et al. (2023);Experiment 1;Orientation;1
6;16;167;-29;1.62805119995028;2;81;25;Houborg et al. (2023);Experiment 1;Orientation;1
6;145;143;-2;2.76206269999966;2;51;26;Houborg et al. (2023);Experiment 1;Orientation;1
6;179;166;-13;1.4776293002069;2;-34;27;Houborg et al. (2023);Experiment 1;Orientation;1
6;13;172;-21;1.64448180003092;2;-14;28;Houborg et al. (2023);Experiment 1;Orientation;1
6;170;172;2;1.51115310005844;2;23;29;Houborg et al. (2023);Experiment 1;Orientation;1
6;4;3;-1;1.9114769003354;2;-14;30;Houborg et al. (2023);Experiment 1;Orientation;1
6;124;129;5;1.56121389986947;2;60;31;Houborg et al. (2023);Experiment 1;Orientation;1
6;142;152;10;1.52788319997489;2;-18;32;Houborg et al. (2023);Experiment 1;Orientation;1
6;97;123;26;1.74472730001435;2;45;33;Houborg et al. (2023);Experiment 1;Orientation;1
6;160;130;-30;2.32832580013201;2;-63;34;Houborg et al. (2023);Experiment 1;Orientation;1
6;162;160;-2;1.84545180015266;2;-2;35;Houborg et al. (2023);Experiment 1;Orientation;1
6;113;118;5;1.86128320032731;2;49;36;Houborg et al. (2023);Experiment 1;Orientation;1
6;25;37;12;1.97830249974504;2;88;37;Houborg et al. (2023);Experiment 1;Orientation;1
6;40;41;1;1.06077879993245;2;-15;38;Houborg et al. (2023);Experiment 1;Orientation;1
6;33;40;7;1.22777719981968;2;7;39;Houborg et al. (2023);Experiment 1;Orientation;1
6;8;42;34;0.59379730001092;2;25;40;Houborg et al. (2023);Experiment 1;Orientation;1
6;20;23;3;1.27756710024551;3;-12;41;Houborg et al. (2023);Experiment 1;Orientation;1
6;111;113;2;1.11079040030017;3;89;42;Houborg et al. (2023);Experiment 1;Orientation;1
6;170;142;-28;2.02839510003105;3;-59;43;Houborg et al. (2023);Experiment 1;Orientation;1
6;64;71;7;1.46126440027729;3;-74;44;Houborg et al. (2023);Experiment 1;Orientation;1
6;74;60;-14;1.0274168998003;3;-10;45;Houborg et al. (2023);Experiment 1;Orientation;1
6;178;5;7;3.52939040027559;3;76;46;Houborg et al. (2023);Experiment 1;Orientation;1
6;171;158;-13;1.31085210014135;3;7;47;Houborg et al. (2023);Experiment 1;Orientation;1
6;122;155;33;1.24420139985159;3;49;48;Houborg et al. (2023);Experiment 1;Orientation;1
6;178;1;3;1.81123350001872;3;-56;49;Houborg et al. (2023);Experiment 1;Orientation;1
6;139;135;-4;0.893996200058609;3;39;50;Houborg et al. (2023);Experiment 1;Orientation;1
6;61;57;-4;3.02887900033966;3;78;51;Houborg et al. (2023);Experiment 1;Orientation;1
6;120;131;11;1.07755139982328;3;-59;52;Houborg et al. (2023);Experiment 1;Orientation;1
6;44;61;17;1.06074979994446;3;76;53;Houborg et al. (2023);Experiment 1;Orientation;1
6;54;51;-3;0.57725050020963;3;-10;54;Houborg et al. (2023);Experiment 1;Orientation;1
6;123;130;7;1.56126810004935;3;-69;55;Houborg et al. (2023);Experiment 1;Orientation;1
6;96;109;13;1.49437709990889;3;27;56;Houborg et al. (2023);Experiment 1;Orientation;1
6;75;51;-24;1.19432639982551;3;21;57;Houborg et al. (2023);Experiment 1;Orientation;1
6;109;109;0;1.26091200020164;3;-34;58;Houborg et al. (2023);Experiment 1;Orientation;1
6;136;139;3;1.49451829958707;3;-27;59;Houborg et al. (2023);Experiment 1;Orientation;1
6;106;122;16;2.52874119998887;3;30;60;Houborg et al. (2023);Experiment 1;Orientation;1
6;100;131;31;1.37772070011124;4;6;61;Houborg et al. (2023);Experiment 1;Orientation;1
6;106;126;20;1.71116829989478;4;-6;62;Houborg et al. (2023);Experiment 1;Orientation;1
6;93;113;20;1.49444200005382;4;13;63;Houborg et al. (2023);Experiment 1;Orientation;1
6;15;34;19;0.76073809992522;4;78;64;Houborg et al. (2023);Experiment 1;Orientation;1
6;130;141;11;1.32829690026119;4;65;65;Houborg et al. (2023);Experiment 1;Orientation;1
6;180;174;-6;1.94514730013907;4;-50;66;Houborg et al. (2023);Experiment 1;Orientation;1
6;64;68;4;1.29439780022949;4;-64;67;Houborg et al. (2023);Experiment 1;Orientation;1
6;175;150;-25;3.76273389998823;4;69;68;Houborg et al. (2023);Experiment 1;Orientation;1
6;63;60;-3;2.64544370025396;4;-68;69;Houborg et al. (2023);Experiment 1;Orientation;1
6;160;152;-8;2.97879990004003;4;83;70;Houborg et al. (2023);Experiment 1;Orientation;1
6;82;72;-10;1.34453139966354;4;78;71;Houborg et al. (2023);Experiment 1;Orientation;1
6;75;78;3;1.87822550022975;4;7;72;Houborg et al. (2023);Experiment 1;Orientation;1
6;40;49;9;1.44446279993281;4;35;73;Houborg et al. (2023);Experiment 1;Orientation;1
6;23;34;11;1.29431280028075;4;17;74;Houborg et al. (2023);Experiment 1;Orientation;1
6;56;57;1;1.59434289997444;4;-33;75;Houborg et al. (2023);Experiment 1;Orientation;1
6;131;111;-20;0.793649800121784;4;-75;76;Houborg et al. (2023);Experiment 1;Orientation;1
6;141;128;-13;1.32748779980466;4;-10;77;Houborg et al. (2023);Experiment 1;Orientation;1
6;125;129;4;1.42776300013065;4;16;78;Houborg et al. (2023);Experiment 1;Orientation;1
6;2;2;0;1.64437239989638;4;-57;79;Houborg et al. (2023);Experiment 1;Orientation;1
6;152;150;-2;2.1616660002619;4;30;80;Houborg et al. (2023);Experiment 1;Orientation;1
6;167;162;-5;1.62765690032393;5;-15;81;Houborg et al. (2023);Experiment 1;Orientation;1
6;139;141;2;1.21095369989052;5;28;82;Houborg et al. (2023);Experiment 1;Orientation;1
6;8;31;23;1.27761809993535;5;-49;83;Houborg et al. (2023);Experiment 1;Orientation;1
6;69;60;-9;1.07763169985265;5;-61;84;Houborg et al. (2023);Experiment 1;Orientation;1
6;127;132;5;0.977082400117069;5;-58;85;Houborg et al. (2023);Experiment 1;Orientation;1
6;132;157;25;2.14550520014018;5;-5;86;Houborg et al. (2023);Experiment 1;Orientation;1
6;41;50;9;0.777056499850005;5;-89;87;Houborg et al. (2023);Experiment 1;Orientation;1
6;49;55;6;2.97898579994217;5;-8;88;Houborg et al. (2023);Experiment 1;Orientation;1
6;122;139;17;1.34434020007029;5;-73;89;Houborg et al. (2023);Experiment 1;Orientation;1
6;86;89;3;1.02732069976628;5;36;90;Houborg et al. (2023);Experiment 1;Orientation;1
6;113;127;14;2.36190110025927;5;-27;91;Houborg et al. (2023);Experiment 1;Orientation;1
6;43;54;11;1.32743169972673;5;70;92;Houborg et al. (2023);Experiment 1;Orientation;1
6;32;56;24;1.344205299858;5;11;93;Houborg et al. (2023);Experiment 1;Orientation;1
6;150;147;-3;0.944535800255835;5;62;94;Houborg et al. (2023);Experiment 1;Orientation;1
6;139;143;4;1.14413079991937;5;11;95;Houborg et al. (2023);Experiment 1;Orientation;1
6;169;152;-17;1.52810889994726;5;-30;96;Houborg et al. (2023);Experiment 1;Orientation;1
6;20;36;16;1.57774839969352;5;-31;97;Houborg et al. (2023);Experiment 1;Orientation;1
6;33;46;13;1.0274760001339;5;-13;98;Houborg et al. (2023);Experiment 1;Orientation;1
6;18;15;-3;1.49440450035036;5;15;99;Houborg et al. (2023);Experiment 1;Orientation;1
6;89;113;24;1.7779676001519;5;-71;100;Houborg et al. (2023);Experiment 1;Orientation;1
6;35;41;6;0.87721490021795;6;54;101;Houborg et al. (2023);Experiment 1;Orientation;1
6;162;164;2;1.52780920034274;6;53;102;Houborg et al. (2023);Experiment 1;Orientation;1
6;18;31;13;1.69454469997436;6;-36;103;Houborg et al. (2023);Experiment 1;Orientation;1
6;8;18;10;1.02726019965485;6;10;104;Houborg et al. (2023);Experiment 1;Orientation;1
6;101;114;13;1.04389339964837;6;87;105;Houborg et al. (2023);Experiment 1;Orientation;1
6;140;123;-17;1.79508920013905;6;-39;106;Houborg et al. (2023);Experiment 1;Orientation;1
6;57;65;8;0.927292500156909;6;83;107;Houborg et al. (2023);Experiment 1;Orientation;1
6;33;51;18;2.06173959979787;6;24;108;Houborg et al. (2023);Experiment 1;Orientation;1
6;62;71;9;1.74481760011986;6;-29;109;Houborg et al. (2023);Experiment 1;Orientation;1
6;38;73;35;1.26093650003895;6;24;110;Houborg et al. (2023);Experiment 1;Orientation;1
6;92;89;-3;1.56122339982539;6;-54;111;Houborg et al. (2023);Experiment 1;Orientation;1
6;164;152;-12;1.46066990029067;6;-72;112;Houborg et al. (2023);Experiment 1;Orientation;1
6;114;115;1;1.29412649990991;6;50;113;Houborg et al. (2023);Experiment 1;Orientation;1
6;19;5;-14;1.36067389976233;6;-85;114;Houborg et al. (2023);Experiment 1;Orientation;1
6;71;65;-6;0.943881699815392;6;-52;115;Houborg et al. (2023);Experiment 1;Orientation;1
6;10;174;-16;1.17749009979889;6;61;116;Houborg et al. (2023);Experiment 1;Orientation;1
6;91;91;0;1.2775317998603;6;-81;117;Houborg et al. (2023);Experiment 1;Orientation;1
6;78;65;-13;1.37793220020831;6;13;118;Houborg et al. (2023);Experiment 1;Orientation;1
6;180;175;-5;1.7947656000033;6;78;119;Houborg et al. (2023);Experiment 1;Orientation;1
6;147;140;-7;1.16076879994944;6;33;120;Houborg et al. (2023);Experiment 1;Orientation;1
6;88;80;-8;2.61206609988585;7;59;121;Houborg et al. (2023);Experiment 1;Orientation;1
6;162;148;-14;1.74471889995039;7;-74;122;Houborg et al. (2023);Experiment 1;Orientation;1
6;25;48;23;0.927312500309199;7;-43;123;Houborg et al. (2023);Experiment 1;Orientation;1
6;71;67;-4;1.57781659998;7;-46;124;Houborg et al. (2023);Experiment 1;Orientation;1
6;167;161;-6;1.62802249984816;7;84;125;Houborg et al. (2023);Experiment 1;Orientation;1
6;166;156;-10;1.86124230036512;7;1;126;Houborg et al. (2023);Experiment 1;Orientation;1
6;129;153;24;1.66123599978164;7;37;127;Houborg et al. (2023);Experiment 1;Orientation;1
6;112;127;15;1.32764830021188;7;17;128;Houborg et al. (2023);Experiment 1;Orientation;1
6;62;59;-3;1.59372949972749;7;50;129;Houborg et al. (2023);Experiment 1;Orientation;1
6;169;11;22;1.72791159991175;7;73;130;Houborg et al. (2023);Experiment 1;Orientation;1
6;23;20;-3;2.06165050016716;7;-34;131;Houborg et al. (2023);Experiment 1;Orientation;1
6;132;139;7;1.61124969972298;7;71;132;Houborg et al. (2023);Experiment 1;Orientation;1
6;117;133;16;3.2958347001113;7;15;133;Houborg et al. (2023);Experiment 1;Orientation;1
6;150;137;-13;2.34528539981693;7;-33;134;Houborg et al. (2023);Experiment 1;Orientation;1
6;72;68;-4;3.02914310013875;7;78;135;Houborg et al. (2023);Experiment 1;Orientation;1
6;135;135;0;1.91161289997399;7;-63;136;Houborg et al. (2023);Experiment 1;Orientation;1
6;151;124;-27;2.97892290027812;7;-16;137;Houborg et al. (2023);Experiment 1;Orientation;1
6;59;55;-4;1.41113100014627;7;-88;138;Houborg et al. (2023);Experiment 1;Orientation;1
6;100;97;-3;1.47774289967492;7;-41;139;Houborg et al. (2023);Experiment 1;Orientation;1
6;177;173;-4;1.41115589998662;7;-77;140;Houborg et al. (2023);Experiment 1;Orientation;1
6;99;122;23;1.07719830004498;8;78;141;Houborg et al. (2023);Experiment 1;Orientation;1
6;60;39;-21;1.1775438003242;8;39;142;Houborg et al. (2023);Experiment 1;Orientation;1
6;112;133;21;1.17808210011572;8;-52;143;Houborg et al. (2023);Experiment 1;Orientation;1
6;65;80;15;1.07761070039123;8;47;144;Houborg et al. (2023);Experiment 1;Orientation;1
6;137;131;-6;1.11060030013323;8;-72;145;Houborg et al. (2023);Experiment 1;Orientation;1
6;75;74;-1;1.31095740012825;8;62;146;Houborg et al. (2023);Experiment 1;Orientation;1
6;89;75;-14;1.31081960024312;8;-14;147;Houborg et al. (2023);Experiment 1;Orientation;1
6;126;114;-12;2.195011400152;8;-37;148;Houborg et al. (2023);Experiment 1;Orientation;1
6;176;1;5;0.827366400044411;8;-50;149;Houborg et al. (2023);Experiment 1;Orientation;1
6;59;55;-4;1.36084119975567;8;-63;150;Houborg et al. (2023);Experiment 1;Orientation;1
6;151;129;-22;1.52775259967893;8;88;151;Houborg et al. (2023);Experiment 1;Orientation;1
6;134;153;19;1.41095629986376;8;17;152;Houborg et al. (2023);Experiment 1;Orientation;1
6;172;151;-21;2.37845329986885;8;-38;153;Houborg et al. (2023);Experiment 1;Orientation;1
6;6;8;2;1.74458590010181;8;-14;154;Houborg et al. (2023);Experiment 1;Orientation;1
6;65;57;-8;1.3441557995975;8;-59;155;Houborg et al. (2023);Experiment 1;Orientation;1
6;120;144;24;1.69416749989614;8;-55;156;Houborg et al. (2023);Experiment 1;Orientation;1
6;51;46;-5;1.22746639978141;8;69;157;Houborg et al. (2023);Experiment 1;Orientation;1
