obs;theta;resp;error;rt;block;delta;trial;study;experiment;stimulus;expnum
1;165;169;4;1.32471470010933;1;NaN;1;Houborg et al. (2023b);Experiment 1;Orientation;1
1;102;100;-2;1.208085799939;1;63;2;Houborg et al. (2023b);Experiment 1;Orientation;1
1;25;30;5;1.30847099993844;1;77;3;Houborg et al. (2023b);Experiment 1;Orientation;1
1;97;103;6;0.941606499953195;1;-72;4;Houborg et al. (2023b);Experiment 1;Orientation;1
1;12;17;5;0.974448499968275;1;85;5;Houborg et al. (2023b);Experiment 1;Orientation;1
1;100;101;1;2.32593000004999;1;-88;6;Houborg et al. (2023b);Experiment 1;Orientation;1
1;108;117;9;1.49186030006967;1;-8;7;Houborg et al. (2023b);Experiment 1;Orientation;1
1;26;44;18;0.774944000062533;1;82;8;Houborg et al. (2023b);Experiment 1;Orientation;1
1;81;47;-34;1.8424639001023;1;-55;9;Houborg et al. (2023b);Experiment 1;Orientation;1
1;121;130;9;0.992161500034854;1;-40;10;Houborg et al. (2023b);Experiment 1;Orientation;1
1;171;156;-15;2.24027870001737;1;-50;11;Houborg et al. (2023b);Experiment 1;Orientation;1
1;129;136;7;1.05828100000508;1;42;12;Houborg et al. (2023b);Experiment 1;Orientation;1
1;143;148;5;1.54025820002425;1;-14;13;Houborg et al. (2023b);Experiment 1;Orientation;1
1;179;1;2;1.70860829995945;1;-36;14;Houborg et al. (2023b);Experiment 1;Orientation;1
1;109;109;0;0.657830499927513;1;70;15;Houborg et al. (2023b);Experiment 1;Orientation;1
1;121;130;9;1.55990340001881;1;-12;16;Houborg et al. (2023b);Experiment 1;Orientation;1
1;89;88;-1;2.7746239999542;1;32;17;Houborg et al. (2023b);Experiment 1;Orientation;1
1;91;122;31;2.05910589999985;1;-2;18;Houborg et al. (2023b);Experiment 1;Orientation;1
1;64;52;-12;2.7423698999919;1;27;19;Houborg et al. (2023b);Experiment 1;Orientation;1
1;13;24;11;0.656870099948719;1;51;20;Houborg et al. (2023b);Experiment 1;Orientation;1
1;15;35;20;1.12450649996754;1;-2;21;Houborg et al. (2023b);Experiment 1;Orientation;1
1;124;134;10;4.25932270009071;1;71;22;Houborg et al. (2023b);Experiment 1;Orientation;1
1;11;32;21;1.70861450000666;1;-67;23;Houborg et al. (2023b);Experiment 1;Orientation;1
1;65;48;-17;1.64093769993633;1;-54;24;Houborg et al. (2023b);Experiment 1;Orientation;1
1;60;56;-4;1.10810720000882;1;5;25;Houborg et al. (2023b);Experiment 1;Orientation;1
1;62;75;13;2.15910920000169;1;-2;26;Houborg et al. (2023b);Experiment 1;Orientation;1
1;166;168;2;1.35806100000627;1;76;27;Houborg et al. (2023b);Experiment 1;Orientation;1
1;103;109;6;2.3932533999905;1;63;28;Houborg et al. (2023b);Experiment 1;Orientation;1
1;79;71;-8;1.79252100002486;1;24;29;Houborg et al. (2023b);Experiment 1;Orientation;1
1;156;157;1;1.89193659997545;1;-77;30;Houborg et al. (2023b);Experiment 1;Orientation;1
1;61;57;-4;1.75953549996484;1;-85;31;Houborg et al. (2023b);Experiment 1;Orientation;1
1;164;163;-1;1.04157299990766;1;77;32;Houborg et al. (2023b);Experiment 1;Orientation;1
1;19;29;10;2.29274090006948;1;-35;33;Houborg et al. (2023b);Experiment 1;Orientation;1
1;166;157;-9;1.07472270005383;1;33;34;Houborg et al. (2023b);Experiment 1;Orientation;1
1;93;89;-4;2.32618950004689;1;73;35;Houborg et al. (2023b);Experiment 1;Orientation;1
1;168;167;-1;3.19387930002995;1;-75;36;Houborg et al. (2023b);Experiment 1;Orientation;1
1;27;31;4;1.90904119994957;1;-39;37;Houborg et al. (2023b);Experiment 1;Orientation;1
1;22;26;4;1.40843139996286;1;5;38;Houborg et al. (2023b);Experiment 1;Orientation;1
1;175;4;9;1.00835130002815;1;27;39;Houborg et al. (2023b);Experiment 1;Orientation;1
1;114;127;13;0.755802600062452;1;61;40;Houborg et al. (2023b);Experiment 1;Orientation;1
1;103;120;17;1.22510579996742;1;11;41;Houborg et al. (2023b);Experiment 1;Orientation;1
1;160;158;-2;0.991471900022589;1;-57;42;Houborg et al. (2023b);Experiment 1;Orientation;1
1;98;111;13;1.92530010000337;1;62;43;Houborg et al. (2023b);Experiment 1;Orientation;1
1;51;69;18;1.67519090010319;1;47;44;Houborg et al. (2023b);Experiment 1;Orientation;1
1;65;54;-11;0.939957999973558;1;-14;45;Houborg et al. (2023b);Experiment 1;Orientation;1
1;62;56;-6;0.95612660003826;1;3;46;Houborg et al. (2023b);Experiment 1;Orientation;1
1;72;65;-7;0.958145899930969;1;-10;47;Houborg et al. (2023b);Experiment 1;Orientation;1
1;149;144;-5;0.889482600032352;1;-77;48;Houborg et al. (2023b);Experiment 1;Orientation;1
1;82;69;-13;2.00898929999676;1;67;49;Houborg et al. (2023b);Experiment 1;Orientation;1
1;16;28;12;2.95993560005445;1;66;50;Houborg et al. (2023b);Experiment 1;Orientation;1
1;134;133;-1;1.7424170000013;1;62;51;Houborg et al. (2023b);Experiment 1;Orientation;1
1;155;142;-13;1.09160410007462;1;-21;52;Houborg et al. (2023b);Experiment 1;Orientation;1
1;103;105;2;0.924605999956839;1;52;53;Houborg et al. (2023b);Experiment 1;Orientation;1
1;126;124;-2;0.974494399968535;1;-23;54;Houborg et al. (2023b);Experiment 1;Orientation;1
1;98;107;9;1.60911850002594;1;28;55;Houborg et al. (2023b);Experiment 1;Orientation;1
1;122;126;4;0.842354799970053;1;-24;56;Houborg et al. (2023b);Experiment 1;Orientation;1
1;119;121;2;1.29135259997565;1;3;57;Houborg et al. (2023b);Experiment 1;Orientation;1
1;172;166;-6;1.6898503000848;1;-53;58;Houborg et al. (2023b);Experiment 1;Orientation;1
1;94;87;-7;1.49219170003198;1;78;59;Houborg et al. (2023b);Experiment 1;Orientation;1
1;99;109;10;2.05915159999859;1;-5;60;Houborg et al. (2023b);Experiment 1;Orientation;1
1;163;160;-3;1.17487550002988;2;-64;61;Houborg et al. (2023b);Experiment 1;Orientation;1
1;142;144;2;1.15835759998299;2;21;62;Houborg et al. (2023b);Experiment 1;Orientation;1
1;64;55;-9;1.75845820002723;2;78;63;Houborg et al. (2023b);Experiment 1;Orientation;1
1;47;46;-1;1.78983909997623;2;17;64;Houborg et al. (2023b);Experiment 1;Orientation;1
1;125;123;-2;1.54194090003148;2;-78;65;Houborg et al. (2023b);Experiment 1;Orientation;1
1;70;65;-5;1.62578390003182;2;55;66;Houborg et al. (2023b);Experiment 1;Orientation;1
1;77;71;-6;1.80855119996704;2;-7;67;Houborg et al. (2023b);Experiment 1;Orientation;1
1;177;3;6;1.89212040009443;2;80;68;Houborg et al. (2023b);Experiment 1;Orientation;1
1;11;20;9;10.0511958999559;2;-14;69;Houborg et al. (2023b);Experiment 1;Orientation;1
1;142;126;-16;1.5420138000045;2;49;70;Houborg et al. (2023b);Experiment 1;Orientation;1
1;139;128;-11;1.04131450003479;2;3;71;Houborg et al. (2023b);Experiment 1;Orientation;1
1;109;115;6;0.724803500110283;2;30;72;Houborg et al. (2023b);Experiment 1;Orientation;1
1;112;120;8;0.740947999991477;2;-3;73;Houborg et al. (2023b);Experiment 1;Orientation;1
1;100;112;12;0.69132870004978;2;12;74;Houborg et al. (2023b);Experiment 1;Orientation;1
1;164;159;-5;1.34155470004771;2;-64;75;Houborg et al. (2023b);Experiment 1;Orientation;1
1;121;120;-1;2.37626090005506;2;43;76;Houborg et al. (2023b);Experiment 1;Orientation;1
1;86;77;-9;2.24231310002506;2;35;77;Houborg et al. (2023b);Experiment 1;Orientation;1
1;121;116;-5;1.01022029994056;2;-35;78;Houborg et al. (2023b);Experiment 1;Orientation;1
1;144;150;6;1.52528540010098;2;-23;79;Houborg et al. (2023b);Experiment 1;Orientation;1
1;122;123;1;1.07498130004387;2;22;80;Houborg et al. (2023b);Experiment 1;Orientation;1
1;15;19;4;1.47661100002006;2;-73;81;Houborg et al. (2023b);Experiment 1;Orientation;1
1;65;65;0;1.27537739998661;2;-50;82;Houborg et al. (2023b);Experiment 1;Orientation;1
1;0;172;-8;1.18970699992497;2;65;83;Houborg et al. (2023b);Experiment 1;Orientation;1
1;115;125;10;0.975361399934627;2;65;84;Houborg et al. (2023b);Experiment 1;Orientation;1
1;164;169;5;1.44098860002123;2;-49;85;Houborg et al. (2023b);Experiment 1;Orientation;1
1;78;73;-5;1.40875349997077;2;86;86;Houborg et al. (2023b);Experiment 1;Orientation;1
1;100;86;-14;1.52528800000437;2;-22;87;Houborg et al. (2023b);Experiment 1;Orientation;1
1;45;57;12;2.07592159998603;2;55;88;Houborg et al. (2023b);Experiment 1;Orientation;1
1;81;74;-7;1.64252540003508;2;-36;89;Houborg et al. (2023b);Experiment 1;Orientation;1
1;1;10;9;2.30902229994535;2;80;90;Houborg et al. (2023b);Experiment 1;Orientation;1
1;30;31;1;1.9087836999679;2;-29;91;Houborg et al. (2023b);Experiment 1;Orientation;1
1;100;111;11;1.03976970002986;2;-70;92;Houborg et al. (2023b);Experiment 1;Orientation;1
1;84;84;0;1.44217380008195;2;16;93;Houborg et al. (2023b);Experiment 1;Orientation;1
1;142;137;-5;2.05912210000679;2;-58;94;Houborg et al. (2023b);Experiment 1;Orientation;1
1;105;114;9;0.991265500080772;2;37;95;Houborg et al. (2023b);Experiment 1;Orientation;1
1;116;135;19;1.75889069994446;2;-11;96;Houborg et al. (2023b);Experiment 1;Orientation;1
1;158;134;-24;2.52635429997463;2;-42;97;Houborg et al. (2023b);Experiment 1;Orientation;1
1;74;64;-10;1.90882270003203;2;84;98;Houborg et al. (2023b);Experiment 1;Orientation;1
1;175;171;-4;2.04181219998281;2;79;99;Houborg et al. (2023b);Experiment 1;Orientation;1
1;92;82;-10;1.95950649993028;2;83;100;Houborg et al. (2023b);Experiment 1;Orientation;1
1;97;108;11;1.92568880005274;2;-5;101;Houborg et al. (2023b);Experiment 1;Orientation;1
1;77;64;-13;1.87568149995059;2;20;102;Houborg et al. (2023b);Experiment 1;Orientation;1
1;102;113;11;1.2246028999798;2;-25;103;Houborg et al. (2023b);Experiment 1;Orientation;1
1;163;159;-4;1.97621880006045;2;-61;104;Houborg et al. (2023b);Experiment 1;Orientation;1
1;80;77;-3;1.82357410003897;2;83;105;Houborg et al. (2023b);Experiment 1;Orientation;1
1;176;172;-4;0.958125100005418;2;84;106;Houborg et al. (2023b);Experiment 1;Orientation;1
1;56;64;8;1.1895495998906;2;-60;107;Houborg et al. (2023b);Experiment 1;Orientation;1
1;144;128;-16;1.99266639992129;2;-88;108;Houborg et al. (2023b);Experiment 1;Orientation;1
1;55;53;-2;1.10806660004891;2;89;109;Houborg et al. (2023b);Experiment 1;Orientation;1
1;6;14;8;1.35599190008361;2;49;110;Houborg et al. (2023b);Experiment 1;Orientation;1
1;54;58;4;1.52568969991989;2;-48;111;Houborg et al. (2023b);Experiment 1;Orientation;1
1;40;42;2;1.02581449993886;2;14;112;Houborg et al. (2023b);Experiment 1;Orientation;1
1;132;139;7;1.29167669999879;2;88;113;Houborg et al. (2023b);Experiment 1;Orientation;1
1;73;70;-3;1.07515170006081;2;59;114;Houborg et al. (2023b);Experiment 1;Orientation;1
1;105;105;0;1.13905749993864;2;-32;115;Houborg et al. (2023b);Experiment 1;Orientation;1
1;135;131;-4;1.22488930006512;2;-30;116;Houborg et al. (2023b);Experiment 1;Orientation;1
1;160;140;-20;1.25871680001728;2;-25;117;Houborg et al. (2023b);Experiment 1;Orientation;1
1;133;137;4;1.04102110001259;2;27;118;Houborg et al. (2023b);Experiment 1;Orientation;1
1;99;84;-15;1.50648729992099;2;34;119;Houborg et al. (2023b);Experiment 1;Orientation;1
1;60;44;-16;1.60909070004709;2;39;120;Houborg et al. (2023b);Experiment 1;Orientation;1
1;139;137;-2;1.2749939999776;3;-79;121;Houborg et al. (2023b);Experiment 1;Orientation;1
1;106;116;10;1.84021169994958;3;33;122;Houborg et al. (2023b);Experiment 1;Orientation;1
1;40;50;10;0.874861499993131;3;66;123;Houborg et al. (2023b);Experiment 1;Orientation;1
1;23;38;15;1.45864109997638;3;17;124;Houborg et al. (2023b);Experiment 1;Orientation;1
1;11;30;19;1.158170800074;3;12;125;Houborg et al. (2023b);Experiment 1;Orientation;1
1;120;116;-4;1.25739200005773;3;71;126;Houborg et al. (2023b);Experiment 1;Orientation;1
1;55;58;3;1.95917419996113;3;65;127;Houborg et al. (2023b);Experiment 1;Orientation;1
1;48;48;0;3.64405310002621;3;7;128;Houborg et al. (2023b);Experiment 1;Orientation;1
1;87;69;-18;2.34327160008252;3;-39;129;Houborg et al. (2023b);Experiment 1;Orientation;1
1;104;108;4;0.974853800027631;3;-17;130;Houborg et al. (2023b);Experiment 1;Orientation;1
1;27;37;10;1.67543980001938;3;77;131;Houborg et al. (2023b);Experiment 1;Orientation;1
1;5;175;-10;1.04134919994976;3;22;132;Houborg et al. (2023b);Experiment 1;Orientation;1
1;65;54;-11;1.11015640001278;3;-60;133;Houborg et al. (2023b);Experiment 1;Orientation;1
1;80;71;-9;1.59206769999582;3;-15;134;Houborg et al. (2023b);Experiment 1;Orientation;1
1;172;161;-11;1.42561969999224;3;88;135;Houborg et al. (2023b);Experiment 1;Orientation;1
1;79;68;-11;1.00787129998207;3;-87;136;Houborg et al. (2023b);Experiment 1;Orientation;1
1;8;12;4;1.64012029999867;3;71;137;Houborg et al. (2023b);Experiment 1;Orientation;1
1;175;168;-7;1.79042820003815;3;13;138;Houborg et al. (2023b);Experiment 1;Orientation;1
1;148;137;-11;1.09190380002838;3;27;139;Houborg et al. (2023b);Experiment 1;Orientation;1
1;100;99;-1;0.858131700078957;3;48;140;Houborg et al. (2023b);Experiment 1;Orientation;1
1;39;41;2;1.12496050004847;3;61;141;Houborg et al. (2023b);Experiment 1;Orientation;1
1;161;139;-22;1.7758240000112;3;58;142;Houborg et al. (2023b);Experiment 1;Orientation;1
1;100;123;23;1.89231429994106;3;61;143;Houborg et al. (2023b);Experiment 1;Orientation;1
1;2;15;13;0.974784299964085;3;-82;144;Houborg et al. (2023b);Experiment 1;Orientation;1
1;147;133;-14;1.15828249999322;3;35;145;Houborg et al. (2023b);Experiment 1;Orientation;1
1;156;146;-10;1.35759359993972;3;-9;146;Houborg et al. (2023b);Experiment 1;Orientation;1
1;77;70;-7;2.07601860002615;3;79;147;Houborg et al. (2023b);Experiment 1;Orientation;1
1;93;85;-8;1.62524309998844;3;-16;148;Houborg et al. (2023b);Experiment 1;Orientation;1
1;59;56;-3;0.841557799954899;3;34;149;Houborg et al. (2023b);Experiment 1;Orientation;1
1;75;68;-7;1.02479870000388;3;-16;150;Houborg et al. (2023b);Experiment 1;Orientation;1
1;116;134;18;1.30851419991814;3;-41;151;Houborg et al. (2023b);Experiment 1;Orientation;1
1;24;26;2;1.34154469997156;3;-88;152;Houborg et al. (2023b);Experiment 1;Orientation;1
1;135;132;-3;0.990909999934956;3;69;153;Houborg et al. (2023b);Experiment 1;Orientation;1
1;66;60;-6;2.25950939999893;3;69;154;Houborg et al. (2023b);Experiment 1;Orientation;1
1;79;66;-13;0.874643499962986;3;-13;155;Houborg et al. (2023b);Experiment 1;Orientation;1
1;45;51;6;2.09280470001977;3;34;156;Houborg et al. (2023b);Experiment 1;Orientation;1
1;85;100;15;2.37554570008069;3;-40;157;Houborg et al. (2023b);Experiment 1;Orientation;1
1;109;114;5;1.97548329993151;3;-24;158;Houborg et al. (2023b);Experiment 1;Orientation;1
1;82;80;-2;1.79224089998752;3;27;159;Houborg et al. (2023b);Experiment 1;Orientation;1
1;80;74;-6;4.54502750001848;3;2;160;Houborg et al. (2023b);Experiment 1;Orientation;1
1;165;158;-7;1.54209999996237;3;-85;161;Houborg et al. (2023b);Experiment 1;Orientation;1
1;63;66;3;0.989483300014399;3;-78;162;Houborg et al. (2023b);Experiment 1;Orientation;1
1;55;47;-8;1.69187249999959;3;8;163;Houborg et al. (2023b);Experiment 1;Orientation;1
1;5;9;4;1.12473290006164;3;50;164;Houborg et al. (2023b);Experiment 1;Orientation;1
1;55;60;5;0.958326600026339;3;-50;165;Houborg et al. (2023b);Experiment 1;Orientation;1
1;11;20;9;1.24129819998052;3;44;166;Houborg et al. (2023b);Experiment 1;Orientation;1
1;113;115;2;1.35848690010607;3;78;167;Houborg et al. (2023b);Experiment 1;Orientation;1
1;93;98;5;1.64210050005931;3;20;168;Houborg et al. (2023b);Experiment 1;Orientation;1
1;77;71;-6;1.12659980007447;3;16;169;Houborg et al. (2023b);Experiment 1;Orientation;1
1;129;127;-2;1.85919880005531;3;-52;170;Houborg et al. (2023b);Experiment 1;Orientation;1
1;120;127;7;0.689552400028333;3;9;171;Houborg et al. (2023b);Experiment 1;Orientation;1
1;171;165;-6;0.691345899947919;3;-51;172;Houborg et al. (2023b);Experiment 1;Orientation;1
1;28;30;2;1.67561650008429;3;-37;173;Houborg et al. (2023b);Experiment 1;Orientation;1
1;55;55;0;1.37490370008163;3;-27;174;Houborg et al. (2023b);Experiment 1;Orientation;1
1;155;149;-6;1.02472630003467;3;80;175;Houborg et al. (2023b);Experiment 1;Orientation;1
1;62;53;-9;0.858564599999227;3;-87;176;Houborg et al. (2023b);Experiment 1;Orientation;1
1;90;102;12;1.5893919999944;3;-28;177;Houborg et al. (2023b);Experiment 1;Orientation;1
1;141;133;-8;0.808192200027406;3;-51;178;Houborg et al. (2023b);Experiment 1;Orientation;1
1;159;156;-3;1.69256480003241;3;-18;179;Houborg et al. (2023b);Experiment 1;Orientation;1
1;11;21;10;1.87328870000783;3;-32;180;Houborg et al. (2023b);Experiment 1;Orientation;1
1;119;117;-2;1.03956320008729;4;72;181;Houborg et al. (2023b);Experiment 1;Orientation;1
1;12;19;7;0.725107499980368;4;-73;182;Houborg et al. (2023b);Experiment 1;Orientation;1
1;82;68;-14;1.65804520004895;4;-70;183;Houborg et al. (2023b);Experiment 1;Orientation;1
1;94;103;9;1.59221869998146;4;-12;184;Houborg et al. (2023b);Experiment 1;Orientation;1
1;59;56;-3;1.55840310000349;4;35;185;Houborg et al. (2023b);Experiment 1;Orientation;1
1;112;109;-3;1.50857409997843;4;-53;186;Houborg et al. (2023b);Experiment 1;Orientation;1
1;111;121;10;0.691533299977891;4;1;187;Houborg et al. (2023b);Experiment 1;Orientation;1
1;111;118;7;1.12452660000417;4;0;188;Houborg et al. (2023b);Experiment 1;Orientation;1
1;158;149;-9;0.805803999886848;4;-47;189;Houborg et al. (2023b);Experiment 1;Orientation;1
1;108;128;20;2.84340860007796;4;50;190;Houborg et al. (2023b);Experiment 1;Orientation;1
1;177;173;-4;1.57540199998766;4;-69;191;Houborg et al. (2023b);Experiment 1;Orientation;1
1;178;174;-4;1.47561950003728;4;-1;192;Houborg et al. (2023b);Experiment 1;Orientation;1
1;5;8;3;1.30895989993587;4;-7;193;Houborg et al. (2023b);Experiment 1;Orientation;1
1;42;45;3;1.34211149998009;4;-37;194;Houborg et al. (2023b);Experiment 1;Orientation;1
1;111;121;10;1.50833240000065;4;-69;195;Houborg et al. (2023b);Experiment 1;Orientation;1
1;134;125;-9;1.4920469999779;4;-23;196;Houborg et al. (2023b);Experiment 1;Orientation;1
1;106;114;8;1.42529209994245;4;28;197;Houborg et al. (2023b);Experiment 1;Orientation;1
1;136;136;0;0.941268099937588;4;-30;198;Houborg et al. (2023b);Experiment 1;Orientation;1
1;145;131;-14;1.03972100000829;4;-9;199;Houborg et al. (2023b);Experiment 1;Orientation;1
1;16;26;10;0.691116400063038;4;-51;200;Houborg et al. (2023b);Experiment 1;Orientation;1
1;52;56;4;1.94231429998763;4;-36;201;Houborg et al. (2023b);Experiment 1;Orientation;1
1;98;105;7;0.941526899929158;4;-46;202;Houborg et al. (2023b);Experiment 1;Orientation;1
1;70;70;0;0.924964600009844;4;28;203;Houborg et al. (2023b);Experiment 1;Orientation;1
1;25;24;-1;2.79335689998697;4;45;204;Houborg et al. (2023b);Experiment 1;Orientation;1
1;149;151;2;1.27492599992547;4;56;205;Houborg et al. (2023b);Experiment 1;Orientation;1
1;19;27;8;1.09179899992887;4;-50;206;Houborg et al. (2023b);Experiment 1;Orientation;1
1;120;127;7;0.774599299998954;4;79;207;Houborg et al. (2023b);Experiment 1;Orientation;1
1;68;63;-5;1.09120110003278;4;52;208;Houborg et al. (2023b);Experiment 1;Orientation;1
1;64;54;-10;1.89194699993823;4;4;209;Houborg et al. (2023b);Experiment 1;Orientation;1
1;14;19;5;0.941514300066046;4;50;210;Houborg et al. (2023b);Experiment 1;Orientation;1
1;130;124;-6;0.705537399975583;4;64;211;Houborg et al. (2023b);Experiment 1;Orientation;1
1;50;46;-4;1.50842019997071;4;80;212;Houborg et al. (2023b);Experiment 1;Orientation;1
1;67;65;-2;1.70881480001844;4;-17;213;Houborg et al. (2023b);Experiment 1;Orientation;1
1;107;114;7;1.44221560005099;4;-40;214;Houborg et al. (2023b);Experiment 1;Orientation;1
1;179;4;5;1.75881949998438;4;-72;215;Houborg et al. (2023b);Experiment 1;Orientation;1
1;105;113;8;0.991198599920608;4;74;216;Houborg et al. (2023b);Experiment 1;Orientation;1
1;102;110;8;1.4757228998933;4;3;217;Houborg et al. (2023b);Experiment 1;Orientation;1
1;139;137;-2;1.94246990000829;4;-37;218;Houborg et al. (2023b);Experiment 1;Orientation;1
1;41;52;11;0.974697500001639;4;-82;219;Houborg et al. (2023b);Experiment 1;Orientation;1
1;82;66;-16;2.10862529999577;4;-41;220;Houborg et al. (2023b);Experiment 1;Orientation;1
1;97;98;1;1.85904300003313;4;-15;221;Houborg et al. (2023b);Experiment 1;Orientation;1
1;145;135;-10;1.05813869996928;4;-48;222;Houborg et al. (2023b);Experiment 1;Orientation;1
1;45;50;5;1.05758460005745;4;-80;223;Houborg et al. (2023b);Experiment 1;Orientation;1
1;62;59;-3;1.77580479998142;4;-17;224;Houborg et al. (2023b);Experiment 1;Orientation;1
1;11;15;4;1.14167779998388;4;51;225;Houborg et al. (2023b);Experiment 1;Orientation;1
1;126;139;13;1.89227100007702;4;65;226;Houborg et al. (2023b);Experiment 1;Orientation;1
1;16;26;10;1.27491170004942;4;-70;227;Houborg et al. (2023b);Experiment 1;Orientation;1
1;78;72;-6;1.34251850005239;4;-62;228;Houborg et al. (2023b);Experiment 1;Orientation;1
1;37;45;8;0.691173000028357;4;41;229;Houborg et al. (2023b);Experiment 1;Orientation;1
1;70;70;0;0.691178099950776;4;-33;230;Houborg et al. (2023b);Experiment 1;Orientation;1
1;70;75;5;2.05742830003146;4;0;231;Houborg et al. (2023b);Experiment 1;Orientation;1
1;21;30;9;1.39206220000051;4;49;232;Houborg et al. (2023b);Experiment 1;Orientation;1
1;155;150;-5;2.24256230005994;4;46;233;Houborg et al. (2023b);Experiment 1;Orientation;1
1;128;134;6;0.973747599986382;4;27;234;Houborg et al. (2023b);Experiment 1;Orientation;1
1;19;30;11;1.19142150005791;4;-71;235;Houborg et al. (2023b);Experiment 1;Orientation;1
1;131;128;-3;1.75753329996951;4;68;236;Houborg et al. (2023b);Experiment 1;Orientation;1
1;44;45;1;1.04169429989997;4;87;237;Houborg et al. (2023b);Experiment 1;Orientation;1
1;1;12;11;1.74223709991202;4;43;238;Houborg et al. (2023b);Experiment 1;Orientation;1
1;145;150;5;1.74187529995106;4;36;239;Houborg et al. (2023b);Experiment 1;Orientation;1
1;39;42;3;1.35823849996086;4;-74;240;Houborg et al. (2023b);Experiment 1;Orientation;1
1;137;132;-5;1.00773799989838;5;82;241;Houborg et al. (2023b);Experiment 1;Orientation;1
1;73;70;-3;1.52528449997772;5;64;242;Houborg et al. (2023b);Experiment 1;Orientation;1
1;79;79;0;0.658052099985071;5;-6;243;Houborg et al. (2023b);Experiment 1;Orientation;1
1;2;18;16;1.30812049994711;5;77;244;Houborg et al. (2023b);Experiment 1;Orientation;1
1;151;153;2;0.939430300029926;5;31;245;Houborg et al. (2023b);Experiment 1;Orientation;1
1;15;20;5;1.65621489996556;5;-44;246;Houborg et al. (2023b);Experiment 1;Orientation;1
1;81;81;0;1.44150870002341;5;-66;247;Houborg et al. (2023b);Experiment 1;Orientation;1
1;38;43;5;1.72555599990301;5;43;248;Houborg et al. (2023b);Experiment 1;Orientation;1
1;178;177;-1;0.840984900016338;5;40;249;Houborg et al. (2023b);Experiment 1;Orientation;1
1;110;112;2;0.809015700011514;5;68;250;Houborg et al. (2023b);Experiment 1;Orientation;1
1;129;126;-3;1.82572389999405;5;-19;251;Houborg et al. (2023b);Experiment 1;Orientation;1
1;73;75;2;1.09127390000504;5;56;252;Houborg et al. (2023b);Experiment 1;Orientation;1
1;170;157;-13;0.741412599920295;5;83;253;Houborg et al. (2023b);Experiment 1;Orientation;1
1;1;13;12;1.65884920000099;5;-11;254;Houborg et al. (2023b);Experiment 1;Orientation;1
1;10;17;7;2.17592750000767;5;-9;255;Houborg et al. (2023b);Experiment 1;Orientation;1
1;160;167;7;1.12499549996573;5;30;256;Houborg et al. (2023b);Experiment 1;Orientation;1
1;139;141;2;0.707697000005282;5;21;257;Houborg et al. (2023b);Experiment 1;Orientation;1
1;2;12;10;1.49198990000878;5;-43;258;Houborg et al. (2023b);Experiment 1;Orientation;1
1;141;143;2;0.841208299971186;5;41;259;Houborg et al. (2023b);Experiment 1;Orientation;1
1;120;125;5;0.658497900003567;5;21;260;Houborg et al. (2023b);Experiment 1;Orientation;1
1;51;56;5;1.45861329999752;5;69;261;Houborg et al. (2023b);Experiment 1;Orientation;1
1;70;71;1;1.09216460003518;5;-19;262;Houborg et al. (2023b);Experiment 1;Orientation;1
1;88;78;-10;1.29191469994839;5;-18;263;Houborg et al. (2023b);Experiment 1;Orientation;1
1;116;121;5;1.17278110003099;5;-28;264;Houborg et al. (2023b);Experiment 1;Orientation;1
1;43;54;11;1.32334130001254;5;73;265;Houborg et al. (2023b);Experiment 1;Orientation;1
1;141;136;-5;0.841187299927697;5;82;266;Houborg et al. (2023b);Experiment 1;Orientation;1
1;33;40;7;0.992366999969818;5;-72;267;Houborg et al. (2023b);Experiment 1;Orientation;1
1;178;177;-1;2.22545989998616;5;35;268;Houborg et al. (2023b);Experiment 1;Orientation;1
1;135;131;-4;1.09153619990684;5;43;269;Houborg et al. (2023b);Experiment 1;Orientation;1
1;49;54;5;1.80865030002315;5;86;270;Houborg et al. (2023b);Experiment 1;Orientation;1
1;116;120;4;1.7257756999461;5;-67;271;Houborg et al. (2023b);Experiment 1;Orientation;1
1;147;136;-11;0.79101760010235;5;-31;272;Houborg et al. (2023b);Experiment 1;Orientation;1
1;140;141;1;0.991193099995144;5;7;273;Houborg et al. (2023b);Experiment 1;Orientation;1
1;70;66;-4;1.99229650001507;5;70;274;Houborg et al. (2023b);Experiment 1;Orientation;1
1;144;138;-6;0.924795500002801;5;-74;275;Houborg et al. (2023b);Experiment 1;Orientation;1
1;174;168;-6;0.807888300041668;5;-30;276;Houborg et al. (2023b);Experiment 1;Orientation;1
1;0;1;1;1.15880670002662;5;-6;277;Houborg et al. (2023b);Experiment 1;Orientation;1
1;162;144;-18;0.607863200013526;5;18;278;Houborg et al. (2023b);Experiment 1;Orientation;1
1;59;46;-13;1.65900720003992;5;-77;279;Houborg et al. (2023b);Experiment 1;Orientation;1
1;60;60;0;0.956156199914403;5;-1;280;Houborg et al. (2023b);Experiment 1;Orientation;1
1;138;129;-9;1.64209500001743;5;-78;281;Houborg et al. (2023b);Experiment 1;Orientation;1
1;51;52;1;1.90904019994196;5;87;282;Houborg et al. (2023b);Experiment 1;Orientation;1
1;147;140;-7;1.52460850006901;5;84;283;Houborg et al. (2023b);Experiment 1;Orientation;1
1;49;47;-2;2.85993630008306;5;-82;284;Houborg et al. (2023b);Experiment 1;Orientation;1
1;8;23;15;1.57511219999287;5;41;285;Houborg et al. (2023b);Experiment 1;Orientation;1
1;83;78;-5;1.63986359990668;5;-75;286;Houborg et al. (2023b);Experiment 1;Orientation;1
1;71;73;2;1.65877980005462;5;12;287;Houborg et al. (2023b);Experiment 1;Orientation;1
1;50;54;4;0.639087899937294;5;21;288;Houborg et al. (2023b);Experiment 1;Orientation;1
1;12;24;12;1.00882810004987;5;38;289;Houborg et al. (2023b);Experiment 1;Orientation;1
1;56;52;-4;1.24129629996605;5;-44;290;Houborg et al. (2023b);Experiment 1;Orientation;1
1;140;140;0;1.44291720003821;5;-84;291;Houborg et al. (2023b);Experiment 1;Orientation;1
1;167;165;-2;1.05810779996682;5;-27;292;Houborg et al. (2023b);Experiment 1;Orientation;1
1;68;62;-6;0.741365200025029;5;-81;293;Houborg et al. (2023b);Experiment 1;Orientation;1
1;120;129;9;1.69214060006198;5;-52;294;Houborg et al. (2023b);Experiment 1;Orientation;1
1;165;151;-14;1.42518840008415;5;-45;295;Houborg et al. (2023b);Experiment 1;Orientation;1
1;175;169;-6;1.50861449993681;5;-10;296;Houborg et al. (2023b);Experiment 1;Orientation;1
1;0;177;-3;1.90921459998935;5;-5;297;Houborg et al. (2023b);Experiment 1;Orientation;1
1;160;168;8;1.07510330004152;5;20;298;Houborg et al. (2023b);Experiment 1;Orientation;1
1;73;72;-1;0.991496399976313;5;87;299;Houborg et al. (2023b);Experiment 1;Orientation;1
1;44;65;21;1.23979110002983;5;29;300;Houborg et al. (2023b);Experiment 1;Orientation;1
1;165;153;-12;1.62475690001156;6;59;301;Houborg et al. (2023b);Experiment 1;Orientation;1
1;110;109;-1;1.15821939997841;6;55;302;Houborg et al. (2023b);Experiment 1;Orientation;1
1;161;151;-10;1.42525099997874;6;-51;303;Houborg et al. (2023b);Experiment 1;Orientation;1
1;120;128;8;1.02475270000286;6;41;304;Houborg et al. (2023b);Experiment 1;Orientation;1
1;142;131;-11;0.674696400063112;6;-22;305;Houborg et al. (2023b);Experiment 1;Orientation;1
1;150;147;-3;1.64120529999491;6;-8;306;Houborg et al. (2023b);Experiment 1;Orientation;1
1;60;39;-21;1.77300010004546;6;90;307;Houborg et al. (2023b);Experiment 1;Orientation;1
1;140;154;14;0.640875699929893;6;-80;308;Houborg et al. (2023b);Experiment 1;Orientation;1
1;150;137;-13;1.75926209997851;6;-10;309;Houborg et al. (2023b);Experiment 1;Orientation;1
1;2;7;5;1.24171640002169;6;-32;310;Houborg et al. (2023b);Experiment 1;Orientation;1
1;14;18;4;1.25815879995935;6;-12;311;Houborg et al. (2023b);Experiment 1;Orientation;1
1;52;43;-9;1.60634810000192;6;-38;312;Houborg et al. (2023b);Experiment 1;Orientation;1
1;152;152;0;1.22518299997319;6;80;313;Houborg et al. (2023b);Experiment 1;Orientation;1
1;17;15;-2;1.27555719995871;6;-45;314;Houborg et al. (2023b);Experiment 1;Orientation;1
1;128;124;-4;1.79231950000394;6;69;315;Houborg et al. (2023b);Experiment 1;Orientation;1
1;23;32;9;1.37505090003833;6;-75;316;Houborg et al. (2023b);Experiment 1;Orientation;1
1;60;70;10;0.974819700000808;6;-37;317;Houborg et al. (2023b);Experiment 1;Orientation;1
1;97;110;13;0.574156799935736;6;-37;318;Houborg et al. (2023b);Experiment 1;Orientation;1
1;15;30;15;1.69229329994414;6;82;319;Houborg et al. (2023b);Experiment 1;Orientation;1
1;167;161;-6;1.50725120003335;6;28;320;Houborg et al. (2023b);Experiment 1;Orientation;1
1;82;77;-5;4.52828560001217;6;85;321;Houborg et al. (2023b);Experiment 1;Orientation;1
1;2;179;-3;1.34307930001523;6;80;322;Houborg et al. (2023b);Experiment 1;Orientation;1
1;102;125;23;1.43935380002949;6;80;323;Houborg et al. (2023b);Experiment 1;Orientation;1
1;14;21;7;1.40902779996395;6;88;324;Houborg et al. (2023b);Experiment 1;Orientation;1
1;70;56;-14;1.74058480001986;6;-56;325;Houborg et al. (2023b);Experiment 1;Orientation;1
1;132;144;12;1.22474149998743;6;-62;326;Houborg et al. (2023b);Experiment 1;Orientation;1
1;145;159;14;2.05909489991609;6;-13;327;Houborg et al. (2023b);Experiment 1;Orientation;1
1;90;85;-5;1.72545330005232;6;55;328;Houborg et al. (2023b);Experiment 1;Orientation;1
1;51;52;1;1.3393756999867;6;39;329;Houborg et al. (2023b);Experiment 1;Orientation;1
1;32;31;-1;1.00808880000841;6;19;330;Houborg et al. (2023b);Experiment 1;Orientation;1
1;47;51;4;1.99255300010554;6;-15;331;Houborg et al. (2023b);Experiment 1;Orientation;1
1;156;139;-17;1.34181390004233;6;71;332;Houborg et al. (2023b);Experiment 1;Orientation;1
1;58;45;-13;1.05764729995281;6;-82;333;Houborg et al. (2023b);Experiment 1;Orientation;1
1;51;47;-4;2.00921729998663;6;7;334;Houborg et al. (2023b);Experiment 1;Orientation;1
1;145;139;-6;1.39163049997296;6;86;335;Houborg et al. (2023b);Experiment 1;Orientation;1
1;24;42;18;0.941788800060749;6;-59;336;Houborg et al. (2023b);Experiment 1;Orientation;1
1;119;115;-4;0.707698700018227;6;85;337;Houborg et al. (2023b);Experiment 1;Orientation;1
1;38;23;-15;1.07516989996657;6;81;338;Houborg et al. (2023b);Experiment 1;Orientation;1
1;4;29;25;2.50937919993885;6;34;339;Houborg et al. (2023b);Experiment 1;Orientation;1
1;49;61;12;1.2411429999629;6;-45;340;Houborg et al. (2023b);Experiment 1;Orientation;1
1;144;137;-7;1.94231589999981;6;85;341;Houborg et al. (2023b);Experiment 1;Orientation;1
1;144;131;-13;2.92722760001197;6;0;342;Houborg et al. (2023b);Experiment 1;Orientation;1
1;17;26;9;1.44185010006186;6;-53;343;Houborg et al. (2023b);Experiment 1;Orientation;1
1;147;140;-7;0.924572299933061;6;50;344;Houborg et al. (2023b);Experiment 1;Orientation;1
1;89;85;-4;1.54214230005164;6;58;345;Houborg et al. (2023b);Experiment 1;Orientation;1
1;135;132;-3;1.77584140002728;6;-46;346;Houborg et al. (2023b);Experiment 1;Orientation;1
1;56;55;-1;1.44218490005005;6;79;347;Houborg et al. (2023b);Experiment 1;Orientation;1
1;37;39;2;0.724634599988349;6;19;348;Houborg et al. (2023b);Experiment 1;Orientation;1
1;44;50;6;0.808944300049916;6;-7;349;Houborg et al. (2023b);Experiment 1;Orientation;1
1;74;71;-3;1.49187250004616;6;-30;350;Houborg et al. (2023b);Experiment 1;Orientation;1
1;88;84;-4;0.924933900008909;6;-14;351;Houborg et al. (2023b);Experiment 1;Orientation;1
1;37;34;-3;0.624622200033627;6;51;352;Houborg et al. (2023b);Experiment 1;Orientation;1
1;39;37;-2;0.889683099929243;6;-2;353;Houborg et al. (2023b);Experiment 1;Orientation;1
1;98;107;9;0.891620800015517;6;-59;354;Houborg et al. (2023b);Experiment 1;Orientation;1
1;107;112;5;1.85704869998153;6;-9;355;Houborg et al. (2023b);Experiment 1;Orientation;1
1;37;47;10;1.54216219997033;6;70;356;Houborg et al. (2023b);Experiment 1;Orientation;1
1;63;56;-7;3.39353700005449;6;-26;357;Houborg et al. (2023b);Experiment 1;Orientation;1
1;162;161;-1;0.674903499893844;6;81;358;Houborg et al. (2023b);Experiment 1;Orientation;1
1;111;118;7;1.67564819997642;6;51;359;Houborg et al. (2023b);Experiment 1;Orientation;1
1;97;104;7;0.958263600012287;6;14;360;Houborg et al. (2023b);Experiment 1;Orientation;1
1;52;50;-2;1.30649089999497;1;45;1;Houborg et al. (2023b);Experiment 1;Orientation;1
1;179;179;0;0.955384599976242;1;53;2;Houborg et al. (2023b);Experiment 1;Orientation;1
1;98;113;15;1.07158859993797;1;81;3;Houborg et al. (2023b);Experiment 1;Orientation;1
1;151;142;-9;1.80842449993361;1;-53;4;Houborg et al. (2023b);Experiment 1;Orientation;1
1;37;38;1;1.13871520000976;1;-66;5;Houborg et al. (2023b);Experiment 1;Orientation;1
1;117;125;8;0.95507839997299;1;-80;6;Houborg et al. (2023b);Experiment 1;Orientation;1
1;47;50;3;0.607716899947263;1;70;7;Houborg et al. (2023b);Experiment 1;Orientation;1
1;117;126;9;1.09155729995109;1;-70;8;Houborg et al. (2023b);Experiment 1;Orientation;1
1;43;53;10;1.2079495000653;1;74;9;Houborg et al. (2023b);Experiment 1;Orientation;1
1;58;57;-1;2.07533489994239;1;-15;10;Houborg et al. (2023b);Experiment 1;Orientation;1
1;149;147;-2;1.5247728000395;1;89;11;Houborg et al. (2023b);Experiment 1;Orientation;1
1;81;70;-11;0.791322099976242;1;68;12;Houborg et al. (2023b);Experiment 1;Orientation;1
1;127;133;6;1.54188709997106;1;-46;13;Houborg et al. (2023b);Experiment 1;Orientation;1
1;50;47;-3;0.974378200015053;1;77;14;Houborg et al. (2023b);Experiment 1;Orientation;1
1;157;157;0;1.02457939996384;1;73;15;Houborg et al. (2023b);Experiment 1;Orientation;1
1;27;25;-2;1.62716120004188;1;-50;16;Houborg et al. (2023b);Experiment 1;Orientation;1
1;178;0;2;0.956656499998644;1;29;17;Houborg et al. (2023b);Experiment 1;Orientation;1
1;4;6;2;1.15807360003237;1;-6;18;Houborg et al. (2023b);Experiment 1;Orientation;1
1;20;21;1;0.958312100032344;1;-16;19;Houborg et al. (2023b);Experiment 1;Orientation;1
1;170;163;-7;0.758480600081384;1;30;20;Houborg et al. (2023b);Experiment 1;Orientation;1
1;178;172;-6;1.51106210006401;1;-8;21;Houborg et al. (2023b);Experiment 1;Orientation;1
1;158;147;-11;1.09190620004665;1;20;22;Houborg et al. (2023b);Experiment 1;Orientation;1
1;117;124;7;0.974317600019276;1;41;23;Houborg et al. (2023b);Experiment 1;Orientation;1
1;160;144;-16;2.04266240005381;1;-43;24;Houborg et al. (2023b);Experiment 1;Orientation;1
1;6;8;2;1.05787889997009;1;-26;25;Houborg et al. (2023b);Experiment 1;Orientation;1
1;106;112;6;1.42417929996736;1;80;26;Houborg et al. (2023b);Experiment 1;Orientation;1
1;172;177;5;2.29028859990649;1;-66;27;Houborg et al. (2023b);Experiment 1;Orientation;1
1;43;47;4;1.97568789997604;1;-51;28;Houborg et al. (2023b);Experiment 1;Orientation;1
1;48;47;-1;1.72489739989396;1;-5;29;Houborg et al. (2023b);Experiment 1;Orientation;1
1;98;105;7;0.673372099990956;1;-50;30;Houborg et al. (2023b);Experiment 1;Orientation;1
1;10;17;7;1.79016189998947;1;88;31;Houborg et al. (2023b);Experiment 1;Orientation;1
1;62;60;-2;1.09106570004951;1;-52;32;Houborg et al. (2023b);Experiment 1;Orientation;1
1;157;154;-3;1.45774079998955;1;85;33;Houborg et al. (2023b);Experiment 1;Orientation;1
1;93;99;6;2.50938900001347;1;64;34;Houborg et al. (2023b);Experiment 1;Orientation;1
1;166;156;-10;1.02519770001527;1;-73;35;Houborg et al. (2023b);Experiment 1;Orientation;1
1;114;120;6;0.874475699965842;1;52;36;Houborg et al. (2023b);Experiment 1;Orientation;1
1;47;41;-6;0.791246200096793;1;67;37;Houborg et al. (2023b);Experiment 1;Orientation;1
1;12;21;9;0.991090899915434;1;35;38;Houborg et al. (2023b);Experiment 1;Orientation;1
1;50;58;8;2.02435479999986;1;-38;39;Houborg et al. (2023b);Experiment 1;Orientation;1
1;46;49;3;2.09269900002982;1;4;40;Houborg et al. (2023b);Experiment 1;Orientation;1
1;70;51;-19;1.92411599995103;1;-24;41;Houborg et al. (2023b);Experiment 1;Orientation;1
1;115;124;9;2.44039609993342;1;-45;42;Houborg et al. (2023b);Experiment 1;Orientation;1
1;20;21;1;1.55876300006639;1;-85;43;Houborg et al. (2023b);Experiment 1;Orientation;1
1;85;77;-8;1.74156240001321;1;-65;44;Houborg et al. (2023b);Experiment 1;Orientation;1
1;46;45;-1;0.974302600021474;1;39;45;Houborg et al. (2023b);Experiment 1;Orientation;1
1;138;136;-2;1.0218039000174;1;88;46;Houborg et al. (2023b);Experiment 1;Orientation;1
1;103;113;10;1.67349110008217;1;35;47;Houborg et al. (2023b);Experiment 1;Orientation;1
1;143;141;-2;2.15847520006355;1;-40;48;Houborg et al. (2023b);Experiment 1;Orientation;1
1;122;125;3;1.34155980008654;1;21;49;Houborg et al. (2023b);Experiment 1;Orientation;1
1;89;89;0;3.05735529994126;1;33;50;Houborg et al. (2023b);Experiment 1;Orientation;1
1;123;121;-2;6.51327869994566;1;-34;51;Houborg et al. (2023b);Experiment 1;Orientation;1
1;88;83;-5;1.95648069994058;1;35;52;Houborg et al. (2023b);Experiment 1;Orientation;1
1;80;80;0;1.72489559999667;1;8;53;Houborg et al. (2023b);Experiment 1;Orientation;1
1;20;26;6;0.507720099994913;1;60;54;Houborg et al. (2023b);Experiment 1;Orientation;1
1;137;133;-4;1.64143339998554;1;63;55;Houborg et al. (2023b);Experiment 1;Orientation;1
1;10;20;10;1.69196279998869;1;-53;56;Houborg et al. (2023b);Experiment 1;Orientation;1
1;89;89;0;2.12534899997991;1;-79;57;Houborg et al. (2023b);Experiment 1;Orientation;1
1;33;37;4;0.841361399972811;1;56;58;Houborg et al. (2023b);Experiment 1;Orientation;1
1;126;125;-1;1.14105809992179;1;87;59;Houborg et al. (2023b);Experiment 1;Orientation;1
1;151;148;-3;1.90677120001055;1;-25;60;Houborg et al. (2023b);Experiment 1;Orientation;1
1;168;157;-11;1.69063389999792;1;-17;61;Houborg et al. (2023b);Experiment 1;Orientation;1
1;155;148;-7;1.22505540004931;1;13;62;Houborg et al. (2023b);Experiment 1;Orientation;1
1;179;171;-8;2.27535770006943;1;-24;63;Houborg et al. (2023b);Experiment 1;Orientation;1
1;15;23;8;0.855521899997257;1;-16;64;Houborg et al. (2023b);Experiment 1;Orientation;1
1;162;157;-5;0.891466800007038;1;33;65;Houborg et al. (2023b);Experiment 1;Orientation;1
1;156;150;-6;0.974436199991032;1;6;66;Houborg et al. (2023b);Experiment 1;Orientation;1
1;106;102;-4;0.75694360001944;1;50;67;Houborg et al. (2023b);Experiment 1;Orientation;1
1;88;84;-4;2.67571890004911;1;18;68;Houborg et al. (2023b);Experiment 1;Orientation;1
1;59;64;5;1.72492900001816;1;29;69;Houborg et al. (2023b);Experiment 1;Orientation;1
1;115;122;7;0.841299299965613;1;-56;70;Houborg et al. (2023b);Experiment 1;Orientation;1
1;179;0;1;0.841101200086996;1;-64;71;Houborg et al. (2023b);Experiment 1;Orientation;1
1;143;134;-9;1.12485620006919;1;36;72;Houborg et al. (2023b);Experiment 1;Orientation;1
1;132;130;-2;0.873775699990802;1;11;73;Houborg et al. (2023b);Experiment 1;Orientation;1
1;38;35;-3;1.92432700004429;1;-86;74;Houborg et al. (2023b);Experiment 1;Orientation;1
1;143;140;-3;1.7914864999475;1;75;75;Houborg et al. (2023b);Experiment 1;Orientation;1
1;16;37;21;1.50828469998669;1;-53;76;Houborg et al. (2023b);Experiment 1;Orientation;1
1;82;78;-4;1.65867150004487;1;-66;77;Houborg et al. (2023b);Experiment 1;Orientation;1
1;10;28;18;1.40852280007675;1;72;78;Houborg et al. (2023b);Experiment 1;Orientation;1
1;45;49;4;1.81067189993337;1;-35;79;Houborg et al. (2023b);Experiment 1;Orientation;1
1;166;155;-11;2.77637410000898;1;59;80;Houborg et al. (2023b);Experiment 1;Orientation;1
1;76;79;3;3.14093510003295;1;90;81;Houborg et al. (2023b);Experiment 1;Orientation;1
1;90;96;6;2.4253430000972;1;-14;82;Houborg et al. (2023b);Experiment 1;Orientation;1
1;22;34;12;2.0752547000302;1;68;83;Houborg et al. (2023b);Experiment 1;Orientation;1
1;134;130;-4;1.32430700003169;1;68;84;Houborg et al. (2023b);Experiment 1;Orientation;1
1;80;61;-19;1.97269999992568;1;54;85;Houborg et al. (2023b);Experiment 1;Orientation;1
1;157;148;-9;1.65863449999597;1;-77;86;Houborg et al. (2023b);Experiment 1;Orientation;1
1;28;28;0;3.17703720007557;1;-51;87;Houborg et al. (2023b);Experiment 1;Orientation;1
1;25;29;4;2.40852799999993;1;3;88;Houborg et al. (2023b);Experiment 1;Orientation;1
1;116;134;18;4.84424440003932;1;89;89;Houborg et al. (2023b);Experiment 1;Orientation;1
1;175;172;-3;2.04158329998609;1;-59;90;Houborg et al. (2023b);Experiment 1;Orientation;1
1;65;47;-18;1.74190899997484;1;-70;91;Houborg et al. (2023b);Experiment 1;Orientation;1
1;10;21;11;4.47727860009763;1;55;92;Houborg et al. (2023b);Experiment 1;Orientation;1
1;57;43;-14;2.39526620006654;1;-47;93;Houborg et al. (2023b);Experiment 1;Orientation;1
1;67;66;-1;1.00701230007689;1;-10;94;Houborg et al. (2023b);Experiment 1;Orientation;1
1;112;130;18;2.74250479997136;1;-45;95;Houborg et al. (2023b);Experiment 1;Orientation;1
1;63;38;-25;2.27551439998206;1;49;96;Houborg et al. (2023b);Experiment 1;Orientation;1
1;40;32;-8;3.25709840003401;1;23;97;Houborg et al. (2023b);Experiment 1;Orientation;1
1;110;120;10;0.941077600000426;1;-70;98;Houborg et al. (2023b);Experiment 1;Orientation;1
1;21;15;-6;5.84554780006874;1;89;99;Houborg et al. (2023b);Experiment 1;Orientation;1
1;13;20;7;2.02471329993568;1;8;100;Houborg et al. (2023b);Experiment 1;Orientation;1
1;58;53;-5;1.64151789993048;2;-45;101;Houborg et al. (2023b);Experiment 1;Orientation;1
1;59;53;-6;1.34153009997681;2;-1;102;Houborg et al. (2023b);Experiment 1;Orientation;1
1;103;120;17;0.939125399920158;2;-44;103;Houborg et al. (2023b);Experiment 1;Orientation;1
1;22;30;8;1.37730900000315;2;81;104;Houborg et al. (2023b);Experiment 1;Orientation;1
1;81;84;3;1.38890230003744;2;-59;105;Houborg et al. (2023b);Experiment 1;Orientation;1
1;70;59;-11;0.941166500095278;2;11;106;Houborg et al. (2023b);Experiment 1;Orientation;1
1;63;64;1;2.65949610003736;2;7;107;Houborg et al. (2023b);Experiment 1;Orientation;1
1;101;119;18;1.87545779999346;2;-38;108;Houborg et al. (2023b);Experiment 1;Orientation;1
1;5;10;5;3.3118823999539;2;-84;109;Houborg et al. (2023b);Experiment 1;Orientation;1
1;64;66;2;2.0921296000015;2;-59;110;Houborg et al. (2023b);Experiment 1;Orientation;1
1;79;79;0;1.40739830001257;2;-15;111;Houborg et al. (2023b);Experiment 1;Orientation;1
1;105;107;2;1.85870820004493;2;-26;112;Houborg et al. (2023b);Experiment 1;Orientation;1
1;75;75;0;0.941134299966507;2;30;113;Houborg et al. (2023b);Experiment 1;Orientation;1
1;98;106;8;1.22512969991658;2;-23;114;Houborg et al. (2023b);Experiment 1;Orientation;1
1;121;116;-5;1.04137439990882;2;-23;115;Houborg et al. (2023b);Experiment 1;Orientation;1
1;125;126;1;1.17373200005386;2;-4;116;Houborg et al. (2023b);Experiment 1;Orientation;1
1;72;69;-3;2.40706410002895;2;53;117;Houborg et al. (2023b);Experiment 1;Orientation;1
1;37;34;-3;1.72568759997375;2;35;118;Houborg et al. (2023b);Experiment 1;Orientation;1
1;127;141;14;1.75863649998792;2;-90;119;Houborg et al. (2023b);Experiment 1;Orientation;1
1;57;60;3;2.32540980004705;2;70;120;Houborg et al. (2023b);Experiment 1;Orientation;1
1;50;45;-5;1.99212319997605;2;7;121;Houborg et al. (2023b);Experiment 1;Orientation;1
1;9;27;18;1.45854160003364;2;41;122;Houborg et al. (2023b);Experiment 1;Orientation;1
1;106;131;25;2.40857870003674;2;83;123;Houborg et al. (2023b);Experiment 1;Orientation;1
1;165;156;-9;1.35881700005848;2;-59;124;Houborg et al. (2023b);Experiment 1;Orientation;1
1;60;51;-9;1.80854910006747;2;-75;125;Houborg et al. (2023b);Experiment 1;Orientation;1
1;45;44;-1;1.85880779998843;2;15;126;Houborg et al. (2023b);Experiment 1;Orientation;1
1;159;150;-9;2.15889229997993;2;66;127;Houborg et al. (2023b);Experiment 1;Orientation;1
1;63;73;10;2.49253940000199;2;-84;128;Houborg et al. (2023b);Experiment 1;Orientation;1
1;119;128;9;1.6413021000335;2;-56;129;Houborg et al. (2023b);Experiment 1;Orientation;1
1;177;164;-13;1.68978759995662;2;-58;130;Houborg et al. (2023b);Experiment 1;Orientation;1
1;156;155;-1;2.34179650002625;2;21;131;Houborg et al. (2023b);Experiment 1;Orientation;1
1;1;10;9;0.940919999964535;2;-25;132;Houborg et al. (2023b);Experiment 1;Orientation;1
1;61;64;3;1.54079670005012;2;-60;133;Houborg et al. (2023b);Experiment 1;Orientation;1
1;120;127;7;2.15926919993944;2;-59;134;Houborg et al. (2023b);Experiment 1;Orientation;1
1;3;10;7;1.04219870001543;2;-63;135;Houborg et al. (2023b);Experiment 1;Orientation;1
1;125;144;19;2.4752518000314;2;58;136;Houborg et al. (2023b);Experiment 1;Orientation;1
1;94;102;8;1.95867459999863;2;31;137;Houborg et al. (2023b);Experiment 1;Orientation;1
1;143;136;-7;2.60935959999915;2;-49;138;Houborg et al. (2023b);Experiment 1;Orientation;1
1;160;153;-7;2.29182479996234;2;-17;139;Houborg et al. (2023b);Experiment 1;Orientation;1
1;148;143;-5;1.09138809994329;2;12;140;Houborg et al. (2023b);Experiment 1;Orientation;1
1;100;117;17;1.40832649997901;2;48;141;Houborg et al. (2023b);Experiment 1;Orientation;1
1;9;15;6;1.39159440004732;2;-89;142;Houborg et al. (2023b);Experiment 1;Orientation;1
1;97;100;3;1.95829939993564;2;-88;143;Houborg et al. (2023b);Experiment 1;Orientation;1
1;168;167;-1;1.79185540007893;2;-71;144;Houborg et al. (2023b);Experiment 1;Orientation;1
1;107;102;-5;1.45947820006404;2;61;145;Houborg et al. (2023b);Experiment 1;Orientation;1
1;156;153;-3;2.67552219994832;2;-49;146;Houborg et al. (2023b);Experiment 1;Orientation;1
1;44;35;-9;1.07391069992445;2;-68;147;Houborg et al. (2023b);Experiment 1;Orientation;1
1;101;101;0;2.75840409996454;2;-57;148;Houborg et al. (2023b);Experiment 1;Orientation;1
1;147;145;-2;1.00776339997537;2;-46;149;Houborg et al. (2023b);Experiment 1;Orientation;1
1;63;53;-10;1.07264600007329;2;84;150;Houborg et al. (2023b);Experiment 1;Orientation;1
1;42;41;-1;1.07417869998608;2;21;151;Houborg et al. (2023b);Experiment 1;Orientation;1
1;53;59;6;1.40827580005862;2;-11;152;Houborg et al. (2023b);Experiment 1;Orientation;1
1;143;143;0;1.32413950003684;2;-90;153;Houborg et al. (2023b);Experiment 1;Orientation;1
1;42;39;-3;0.957170399953611;2;-79;154;Houborg et al. (2023b);Experiment 1;Orientation;1
1;13;24;11;2.15963100001682;2;29;155;Houborg et al. (2023b);Experiment 1;Orientation;1
1;23;27;4;1.42468399996869;2;-10;156;Houborg et al. (2023b);Experiment 1;Orientation;1
1;167;161;-6;2.05862570006866;2;36;157;Houborg et al. (2023b);Experiment 1;Orientation;1
1;36;34;-2;2.09187990007922;2;-49;158;Houborg et al. (2023b);Experiment 1;Orientation;1
1;91;92;1;1.0417190999724;2;-55;159;Houborg et al. (2023b);Experiment 1;Orientation;1
1;155;150;-5;1.90888660005294;2;-64;160;Houborg et al. (2023b);Experiment 1;Orientation;1
1;56;53;-3;1.1583443999989;2;-81;161;Houborg et al. (2023b);Experiment 1;Orientation;1
1;125;143;18;2.55842100002337;2;-69;162;Houborg et al. (2023b);Experiment 1;Orientation;1
1;73;80;7;1.65785650000907;2;52;163;Houborg et al. (2023b);Experiment 1;Orientation;1
1;141;148;7;2.20688660000451;2;-68;164;Houborg et al. (2023b);Experiment 1;Orientation;1
1;164;159;-5;1.99184709996916;2;-23;165;Houborg et al. (2023b);Experiment 1;Orientation;1
1;57;156;-81;1.9754827999277;2;-73;166;Houborg et al. (2023b);Experiment 1;Orientation;1
1;152;154;2;1.85839750000741;2;85;167;Houborg et al. (2023b);Experiment 1;Orientation;1
1;114;118;4;1.20517529989593;2;38;168;Houborg et al. (2023b);Experiment 1;Orientation;1
1;110;124;14;2.27558019990101;2;4;169;Houborg et al. (2023b);Experiment 1;Orientation;1
1;27;28;1;0.956913799978793;2;83;170;Houborg et al. (2023b);Experiment 1;Orientation;1
1;82;67;-15;1.47442580002826;2;-55;171;Houborg et al. (2023b);Experiment 1;Orientation;1
1;100;109;9;1.52454440004658;2;-18;172;Houborg et al. (2023b);Experiment 1;Orientation;1
1;62;57;-5;1.2244975999929;2;38;173;Houborg et al. (2023b);Experiment 1;Orientation;1
1;50;61;11;2.32520159997512;2;12;174;Houborg et al. (2023b);Experiment 1;Orientation;1
1;94;140;46;2.0056096999906;2;-44;175;Houborg et al. (2023b);Experiment 1;Orientation;1
1;19;35;16;0.923939900007099;2;75;176;Houborg et al. (2023b);Experiment 1;Orientation;1
1;76;73;-3;2.22589619993232;2;-57;177;Houborg et al. (2023b);Experiment 1;Orientation;1
1;75;66;-9;1.24180650000926;2;1;178;Houborg et al. (2023b);Experiment 1;Orientation;1
1;51;56;5;1.02449820004404;2;24;179;Houborg et al. (2023b);Experiment 1;Orientation;1
1;45;51;6;1.04112710000481;2;6;180;Houborg et al. (2023b);Experiment 1;Orientation;1
1;88;94;6;1.124210900045;2;-43;181;Houborg et al. (2023b);Experiment 1;Orientation;1
1;118;126;8;2.70850349997636;2;-30;182;Houborg et al. (2023b);Experiment 1;Orientation;1
1;107;114;7;1.75744539999869;2;11;183;Houborg et al. (2023b);Experiment 1;Orientation;1
1;59;61;2;1.44150419998914;2;48;184;Houborg et al. (2023b);Experiment 1;Orientation;1
1;110;119;9;1.15764650003985;2;-51;185;Houborg et al. (2023b);Experiment 1;Orientation;1
1;125;130;5;1.25765779998619;2;-15;186;Houborg et al. (2023b);Experiment 1;Orientation;1
1;67;66;-1;2.42565230000764;2;58;187;Houborg et al. (2023b);Experiment 1;Orientation;1
1;151;151;0;1.32443549996242;2;-84;188;Houborg et al. (2023b);Experiment 1;Orientation;1
1;0;179;-1;1.57479649991728;2;-29;189;Houborg et al. (2023b);Experiment 1;Orientation;1
1;143;151;8;1.45848149992526;2;37;190;Houborg et al. (2023b);Experiment 1;Orientation;1
1;24;18;-6;1.49211019999348;2;-61;191;Houborg et al. (2023b);Experiment 1;Orientation;1
1;55;44;-11;1.7576419999823;2;-31;192;Houborg et al. (2023b);Experiment 1;Orientation;1
1;58;44;-14;0.841044700006023;2;-3;193;Houborg et al. (2023b);Experiment 1;Orientation;1
1;95;99;4;2.15785990003496;2;-37;194;Houborg et al. (2023b);Experiment 1;Orientation;1
1;163;160;-3;1.34119720000308;2;-68;195;Houborg et al. (2023b);Experiment 1;Orientation;1
1;114;121;7;1.224846099969;2;49;196;Houborg et al. (2023b);Experiment 1;Orientation;1
1;130;131;1;1.02481909992639;2;-16;197;Houborg et al. (2023b);Experiment 1;Orientation;1
1;20;20;0;2.75709169998299;2;-70;198;Houborg et al. (2023b);Experiment 1;Orientation;1
1;45;39;-6;1.65888789994642;2;-25;199;Houborg et al. (2023b);Experiment 1;Orientation;1
1;6;179;-7;3.07640100002754;2;39;200;Houborg et al. (2023b);Experiment 1;Orientation;1
1;100;109;9;0.891319600050338;3;86;201;Houborg et al. (2023b);Experiment 1;Orientation;1
1;28;38;10;0.824242900009267;3;72;202;Houborg et al. (2023b);Experiment 1;Orientation;1
1;36;34;-2;1.37406770000234;3;-8;203;Houborg et al. (2023b);Experiment 1;Orientation;1
1;3;9;6;2.20868690009229;3;33;204;Houborg et al. (2023b);Experiment 1;Orientation;1
1;50;47;-3;1.04113010002766;3;-47;205;Houborg et al. (2023b);Experiment 1;Orientation;1
1;175;176;1;1.86097669997253;3;55;206;Houborg et al. (2023b);Experiment 1;Orientation;1
1;106;114;8;1.12424000003375;3;69;207;Houborg et al. (2023b);Experiment 1;Orientation;1
1;68;74;6;2.34206729999278;3;38;208;Houborg et al. (2023b);Experiment 1;Orientation;1
1;163;158;-5;1.87524019996636;3;85;209;Houborg et al. (2023b);Experiment 1;Orientation;1
1;155;146;-9;0.941532599972561;3;8;210;Houborg et al. (2023b);Experiment 1;Orientation;1
1;93;95;2;1.89204509998672;3;62;211;Houborg et al. (2023b);Experiment 1;Orientation;1
1;150;142;-8;1.2585667000385;3;-57;212;Houborg et al. (2023b);Experiment 1;Orientation;1
1;141;142;1;1.05766279995441;3;9;213;Houborg et al. (2023b);Experiment 1;Orientation;1
1;39;38;-1;0.923757900018245;3;-78;214;Houborg et al. (2023b);Experiment 1;Orientation;1
1;75;66;-9;0.791065800003707;3;-36;215;Houborg et al. (2023b);Experiment 1;Orientation;1
1;41;41;0;1.45783379999921;3;34;216;Houborg et al. (2023b);Experiment 1;Orientation;1
1;20;33;13;2.15753490000498;3;21;217;Houborg et al. (2023b);Experiment 1;Orientation;1
1;165;154;-11;2.37554889998864;3;35;218;Houborg et al. (2023b);Experiment 1;Orientation;1
1;83;80;-3;2.25920550001319;3;82;219;Houborg et al. (2023b);Experiment 1;Orientation;1
1;14;16;2;1.04134039999917;3;69;220;Houborg et al. (2023b);Experiment 1;Orientation;1
1;7;17;10;0.857614099979401;3;7;221;Houborg et al. (2023b);Experiment 1;Orientation;1
1;76;66;-10;1.97536419995595;3;-69;222;Houborg et al. (2023b);Experiment 1;Orientation;1
1;88;97;9;1.67512340005487;3;-12;223;Houborg et al. (2023b);Experiment 1;Orientation;1
1;155;160;5;0.79065450001508;3;-67;224;Houborg et al. (2023b);Experiment 1;Orientation;1
1;176;168;-8;7.12880830001086;3;-21;225;Houborg et al. (2023b);Experiment 1;Orientation;1
1;93;92;-1;1.29095289995894;3;83;226;Houborg et al. (2023b);Experiment 1;Orientation;1
1;65;60;-5;0.874491899972782;3;28;227;Houborg et al. (2023b);Experiment 1;Orientation;1
1;20;34;14;1.20545020001009;3;45;228;Houborg et al. (2023b);Experiment 1;Orientation;1
1;125;144;19;0.724057500017807;3;75;229;Houborg et al. (2023b);Experiment 1;Orientation;1
1;105;114;9;0.974529200000688;3;20;230;Houborg et al. (2023b);Experiment 1;Orientation;1
1;124;127;3;1.57450090011116;3;-19;231;Houborg et al. (2023b);Experiment 1;Orientation;1
1;50;54;4;1.29079139989335;3;74;232;Houborg et al. (2023b);Experiment 1;Orientation;1
1;146;141;-5;1.9751871000044;3;84;233;Houborg et al. (2023b);Experiment 1;Orientation;1
1;141;143;2;1.60598300001584;3;5;234;Houborg et al. (2023b);Experiment 1;Orientation;1
1;14;23;9;1.04108049999923;3;-53;235;Houborg et al. (2023b);Experiment 1;Orientation;1
1;51;46;-5;0.82435919996351;3;-37;236;Houborg et al. (2023b);Experiment 1;Orientation;1
1;104;105;1;1.60821820003912;3;-53;237;Houborg et al. (2023b);Experiment 1;Orientation;1
1;93;90;-3;2.17518259992357;3;11;238;Houborg et al. (2023b);Experiment 1;Orientation;1
1;165;167;2;1.54451739997603;3;-72;239;Houborg et al. (2023b);Experiment 1;Orientation;1
1;112;118;6;2.49196620006114;3;53;240;Houborg et al. (2023b);Experiment 1;Orientation;1
1;74;71;-3;1.52503140002955;3;38;241;Houborg et al. (2023b);Experiment 1;Orientation;1
1;165;160;-5;2.25985079992097;3;89;242;Houborg et al. (2023b);Experiment 1;Orientation;1
1;21;14;-7;3.96042410004884;3;-36;243;Houborg et al. (2023b);Experiment 1;Orientation;1
1;46;43;-3;5.64497070002835;3;-25;244;Houborg et al. (2023b);Experiment 1;Orientation;1
1;58;43;-15;2.70892020000611;3;-12;245;Houborg et al. (2023b);Experiment 1;Orientation;1
1;46;40;-6;1.7752671999624;3;12;246;Houborg et al. (2023b);Experiment 1;Orientation;1
1;165;162;-3;1.07231149997097;3;61;247;Houborg et al. (2023b);Experiment 1;Orientation;1
1;174;173;-1;2.02537770010531;3;-9;248;Houborg et al. (2023b);Experiment 1;Orientation;1
1;144;149;5;1.49168899992947;3;30;249;Houborg et al. (2023b);Experiment 1;Orientation;1
1;17;20;3;1.55807850009296;3;-53;250;Houborg et al. (2023b);Experiment 1;Orientation;1
1;23;30;7;0.873929199995473;3;-6;251;Houborg et al. (2023b);Experiment 1;Orientation;1
1;145;132;-13;2.19207250000909;3;58;252;Houborg et al. (2023b);Experiment 1;Orientation;1
1;145;146;1;2.20893620001152;3;0;253;Houborg et al. (2023b);Experiment 1;Orientation;1
1;16;9;-7;1.65844769997057;3;-51;254;Houborg et al. (2023b);Experiment 1;Orientation;1
1;116;116;0;1.47477149998304;3;80;255;Houborg et al. (2023b);Experiment 1;Orientation;1
1;33;37;4;1.34117679996416;3;83;256;Houborg et al. (2023b);Experiment 1;Orientation;1
1;154;168;14;1.97510929999407;3;59;257;Houborg et al. (2023b);Experiment 1;Orientation;1
1;110;115;5;1.05438810004853;3;44;258;Houborg et al. (2023b);Experiment 1;Orientation;1
1;125;135;10;4.24366649996955;3;-15;259;Houborg et al. (2023b);Experiment 1;Orientation;1
1;41;39;-2;1.64193769998383;3;84;260;Houborg et al. (2023b);Experiment 1;Orientation;1
1;179;179;0;1.94176220009103;3;42;261;Houborg et al. (2023b);Experiment 1;Orientation;1
1;121;119;-2;2.60919510002714;3;58;262;Houborg et al. (2023b);Experiment 1;Orientation;1
1;59;63;4;1.44178960006684;3;62;263;Houborg et al. (2023b);Experiment 1;Orientation;1
1;171;168;-3;0.972821500035934;3;68;264;Houborg et al. (2023b);Experiment 1;Orientation;1
1;78;67;-11;4.44372850004584;3;-87;265;Houborg et al. (2023b);Experiment 1;Orientation;1
1;74;73;-1;1.4915456000017;3;4;266;Houborg et al. (2023b);Experiment 1;Orientation;1
1;30;39;9;1.13928959995974;3;44;267;Houborg et al. (2023b);Experiment 1;Orientation;1
1;77;72;-5;4.64386620000005;3;-47;268;Houborg et al. (2023b);Experiment 1;Orientation;1
1;4;11;7;1.40817770001013;3;73;269;Houborg et al. (2023b);Experiment 1;Orientation;1
1;175;3;8;1.54162960010581;3;9;270;Houborg et al. (2023b);Experiment 1;Orientation;1
1;37;35;-2;0.90548509999644;3;-42;271;Houborg et al. (2023b);Experiment 1;Orientation;1
1;137;147;10;0.674245200003497;3;80;272;Houborg et al. (2023b);Experiment 1;Orientation;1
1;43;44;1;3.34226169995964;3;-86;273;Houborg et al. (2023b);Experiment 1;Orientation;1
1;30;33;3;0.640809600008652;3;13;274;Houborg et al. (2023b);Experiment 1;Orientation;1
1;137;141;4;0.724199699936435;3;73;275;Houborg et al. (2023b);Experiment 1;Orientation;1
1;176;172;-4;0.624385199975222;3;-39;276;Houborg et al. (2023b);Experiment 1;Orientation;1
1;13;25;12;0.773956200107932;3;-17;277;Houborg et al. (2023b);Experiment 1;Orientation;1
1;76;72;-4;1.74128590000328;3;-63;278;Houborg et al. (2023b);Experiment 1;Orientation;1
1;78;73;-5;1.44131790008396;3;-2;279;Houborg et al. (2023b);Experiment 1;Orientation;1
1;113;118;5;0.972010399913415;3;-35;280;Houborg et al. (2023b);Experiment 1;Orientation;1
1;30;23;-7;2.0420411999803;3;83;281;Houborg et al. (2023b);Experiment 1;Orientation;1
1;122;116;-6;2.52453669998795;3;88;282;Houborg et al. (2023b);Experiment 1;Orientation;1
1;138;133;-5;3.39344549993984;3;-16;283;Houborg et al. (2023b);Experiment 1;Orientation;1
1;21;28;7;1.87555469991639;3;-63;284;Houborg et al. (2023b);Experiment 1;Orientation;1
1;95;100;5;2.52564629993867;3;-74;285;Houborg et al. (2023b);Experiment 1;Orientation;1
1;95;112;17;1.19148449995555;3;0;286;Houborg et al. (2023b);Experiment 1;Orientation;1
1;15;20;5;1.15781590004917;3;80;287;Houborg et al. (2023b);Experiment 1;Orientation;1
1;51;42;-9;1.52281389990821;3;-36;288;Houborg et al. (2023b);Experiment 1;Orientation;1
1;93;101;8;0.807332099997438;3;-42;289;Houborg et al. (2023b);Experiment 1;Orientation;1
1;115;127;12;1.65867359994445;3;-22;290;Houborg et al. (2023b);Experiment 1;Orientation;1
1;95;107;12;1.34176290000323;3;20;291;Houborg et al. (2023b);Experiment 1;Orientation;1
1;168;162;-6;1.14104139991105;3;-73;292;Houborg et al. (2023b);Experiment 1;Orientation;1
1;145;163;18;2.22573109995574;3;23;293;Houborg et al. (2023b);Experiment 1;Orientation;1
1;16;19;3;1.04059739992954;3;-51;294;Houborg et al. (2023b);Experiment 1;Orientation;1
1;44;32;-12;1.72434060007799;3;-28;295;Houborg et al. (2023b);Experiment 1;Orientation;1
1;96;111;15;1.99205589992926;3;-52;296;Houborg et al. (2023b);Experiment 1;Orientation;1
1;42;45;3;1.80889650003519;3;54;297;Houborg et al. (2023b);Experiment 1;Orientation;1
1;109;119;10;2.08973540004808;3;-67;298;Houborg et al. (2023b);Experiment 1;Orientation;1
1;110;113;3;2.02570640004706;3;-1;299;Houborg et al. (2023b);Experiment 1;Orientation;1
1;31;37;6;2.64221800002269;3;79;300;Houborg et al. (2023b);Experiment 1;Orientation;1
1;25;32;7;1.17495110002346;4;6;301;Houborg et al. (2023b);Experiment 1;Orientation;1
1;169;163;-6;1.35802529996727;4;36;302;Houborg et al. (2023b);Experiment 1;Orientation;1
1;65;61;-4;2.10853140009567;4;-76;303;Houborg et al. (2023b);Experiment 1;Orientation;1
1;65;66;1;0.974570699967444;4;0;304;Houborg et al. (2023b);Experiment 1;Orientation;1
1;34;39;5;1.47479160001967;4;31;305;Houborg et al. (2023b);Experiment 1;Orientation;1
1;55;50;-5;1.25683749991003;4;-21;306;Houborg et al. (2023b);Experiment 1;Orientation;1
1;4;23;19;1.15791369997896;4;51;307;Houborg et al. (2023b);Experiment 1;Orientation;1
1;3;13;10;1.29131629993208;4;1;308;Houborg et al. (2023b);Experiment 1;Orientation;1
1;118;119;1;2.24235640000552;4;65;309;Houborg et al. (2023b);Experiment 1;Orientation;1
1;174;172;-2;1.35743199998979;4;-56;310;Houborg et al. (2023b);Experiment 1;Orientation;1
1;110;121;11;1.7750816999469;4;64;311;Houborg et al. (2023b);Experiment 1;Orientation;1
1;144;129;-15;1.35839680000208;4;-34;312;Houborg et al. (2023b);Experiment 1;Orientation;1
1;37;50;13;2.77675640000962;4;-73;313;Houborg et al. (2023b);Experiment 1;Orientation;1
1;62;60;-2;1.62537330004852;4;-25;314;Houborg et al. (2023b);Experiment 1;Orientation;1
1;64;49;-15;1.05728880001698;4;-2;315;Houborg et al. (2023b);Experiment 1;Orientation;1
1;38;53;15;0.891460899962112;4;26;316;Houborg et al. (2023b);Experiment 1;Orientation;1
1;163;165;2;1.24104499991518;4;55;317;Houborg et al. (2023b);Experiment 1;Orientation;1
1;46;45;-1;0.891371199977584;4;-63;318;Houborg et al. (2023b);Experiment 1;Orientation;1
1;155;156;1;1.8105887999991;4;71;319;Houborg et al. (2023b);Experiment 1;Orientation;1
1;160;155;-5;1.35791539994534;4;-5;320;Houborg et al. (2023b);Experiment 1;Orientation;1
1;147;149;2;1.20751679991372;4;13;321;Houborg et al. (2023b);Experiment 1;Orientation;1
1;18;22;4;1.25842570001259;4;-51;322;Houborg et al. (2023b);Experiment 1;Orientation;1
1;91;92;1;1.45946859999094;4;-73;323;Houborg et al. (2023b);Experiment 1;Orientation;1
1;24;21;-3;1.00508310005534;4;67;324;Houborg et al. (2023b);Experiment 1;Orientation;1
1;97;95;-2;1.7420614999719;4;-73;325;Houborg et al. (2023b);Experiment 1;Orientation;1
1;47;55;8;1.99155010003597;4;50;326;Houborg et al. (2023b);Experiment 1;Orientation;1
1;45;60;15;4.90787510003429;4;2;327;Houborg et al. (2023b);Experiment 1;Orientation;1
1;160;157;-3;4.16058910009451;4;65;328;Houborg et al. (2023b);Experiment 1;Orientation;1
1;142;147;5;1.02504150010645;4;18;329;Houborg et al. (2023b);Experiment 1;Orientation;1
1;120;136;16;2.27579699992202;4;22;330;Houborg et al. (2023b);Experiment 1;Orientation;1
1;15;14;-1;1.60828740010038;4;-75;331;Houborg et al. (2023b);Experiment 1;Orientation;1
1;161;148;-13;2.07531139999628;4;34;332;Houborg et al. (2023b);Experiment 1;Orientation;1
1;24;33;9;1.25780589994974;4;-43;333;Houborg et al. (2023b);Experiment 1;Orientation;1
1;127;143;16;1.79344390006736;4;77;334;Houborg et al. (2023b);Experiment 1;Orientation;1
1;22;30;8;1.22410370002035;4;-75;335;Houborg et al. (2023b);Experiment 1;Orientation;1
1;83;73;-10;0.974885600036941;4;-61;336;Houborg et al. (2023b);Experiment 1;Orientation;1
1;62;64;2;1.44181929994375;4;21;337;Houborg et al. (2023b);Experiment 1;Orientation;1
1;112;109;-3;0.991048399941064;4;-50;338;Houborg et al. (2023b);Experiment 1;Orientation;1
1;23;26;3;0.775186100043356;4;89;339;Houborg et al. (2023b);Experiment 1;Orientation;1
1;58;66;8;2.10993630008306;4;-35;340;Houborg et al. (2023b);Experiment 1;Orientation;1
1;5;5;0;1.50834439997561;4;53;341;Houborg et al. (2023b);Experiment 1;Orientation;1
1;121;130;9;1.89244419999886;4;64;342;Houborg et al. (2023b);Experiment 1;Orientation;1
1;116;125;9;0.791086800047196;4;5;343;Houborg et al. (2023b);Experiment 1;Orientation;1
1;152;147;-5;1.90878709999379;4;-36;344;Houborg et al. (2023b);Experiment 1;Orientation;1
1;24;24;0;1.00812809995841;4;-52;345;Houborg et al. (2023b);Experiment 1;Orientation;1
1;24;25;1;1.12423359998502;4;0;346;Houborg et al. (2023b);Experiment 1;Orientation;1
1;63;56;-7;1.60549059999175;4;-39;347;Houborg et al. (2023b);Experiment 1;Orientation;1
1;153;155;2;1.03900109999813;4;-90;348;Houborg et al. (2023b);Experiment 1;Orientation;1
1;92;87;-5;1.65846319997218;4;61;349;Houborg et al. (2023b);Experiment 1;Orientation;1
1;1;1;0;1.3913180999225;4;-89;350;Houborg et al. (2023b);Experiment 1;Orientation;1
1;35;38;3;2.07405509997625;4;-34;351;Houborg et al. (2023b);Experiment 1;Orientation;1
1;13;22;9;0.957934799953364;4;22;352;Houborg et al. (2023b);Experiment 1;Orientation;1
1;24;21;-3;1.59179010009393;4;-11;353;Houborg et al. (2023b);Experiment 1;Orientation;1
1;122;130;8;1.6750633000629;4;82;354;Houborg et al. (2023b);Experiment 1;Orientation;1
1;140;139;-1;1.17297039995901;4;-18;355;Houborg et al. (2023b);Experiment 1;Orientation;1
1;162;150;-12;1.07467469992116;4;-22;356;Houborg et al. (2023b);Experiment 1;Orientation;1
1;119;110;-9;1.72550700011197;4;43;357;Houborg et al. (2023b);Experiment 1;Orientation;1
1;136;130;-6;1.90869880001992;4;-17;358;Houborg et al. (2023b);Experiment 1;Orientation;1
1;125;133;8;1.77439590007998;4;11;359;Houborg et al. (2023b);Experiment 1;Orientation;1
1;146;132;-14;1.17484029999468;4;-21;360;Houborg et al. (2023b);Experiment 1;Orientation;1
1;5;10;5;1.02460470004007;4;-39;361;Houborg et al. (2023b);Experiment 1;Orientation;1
1;144;153;9;2.359140100074;4;41;362;Houborg et al. (2023b);Experiment 1;Orientation;1
1;46;35;-11;1.15770159999374;4;-82;363;Houborg et al. (2023b);Experiment 1;Orientation;1
1;49;52;3;1.85863280005287;4;-3;364;Houborg et al. (2023b);Experiment 1;Orientation;1
1;97;92;-5;1.15955129999202;4;-48;365;Houborg et al. (2023b);Experiment 1;Orientation;1
1;17;24;7;1.84189249994233;4;80;366;Houborg et al. (2023b);Experiment 1;Orientation;1
1;176;175;-1;1.0920648999745;4;21;367;Houborg et al. (2023b);Experiment 1;Orientation;1
1;163;154;-9;1.02421489998233;4;13;368;Houborg et al. (2023b);Experiment 1;Orientation;1
1;108;124;16;2.50960849993862;4;55;369;Houborg et al. (2023b);Experiment 1;Orientation;1
1;131;123;-8;1.48958569997922;4;-23;370;Houborg et al. (2023b);Experiment 1;Orientation;1
1;36;42;6;1.99197900004219;4;-85;371;Houborg et al. (2023b);Experiment 1;Orientation;1
1;55;52;-3;0.842936699977145;4;-19;372;Houborg et al. (2023b);Experiment 1;Orientation;1
1;83;67;-16;1.32233670004643;4;-28;373;Houborg et al. (2023b);Experiment 1;Orientation;1
1;121;133;12;1.4413800999755;4;-38;374;Houborg et al. (2023b);Experiment 1;Orientation;1
1;97;87;-10;1.95927820005454;4;24;375;Houborg et al. (2023b);Experiment 1;Orientation;1
1;75;72;-3;2.04217290005181;4;22;376;Houborg et al. (2023b);Experiment 1;Orientation;1
1;75;72;-3;2.24195729999337;4;0;377;Houborg et al. (2023b);Experiment 1;Orientation;1
1;123;128;5;0.907619900070131;4;-48;378;Houborg et al. (2023b);Experiment 1;Orientation;1
1;68;72;4;1.17286139994394;4;55;379;Houborg et al. (2023b);Experiment 1;Orientation;1
1;31;28;-3;1.70812440000009;4;37;380;Houborg et al. (2023b);Experiment 1;Orientation;1
1;109;108;-1;2.09199360001367;4;-78;381;Houborg et al. (2023b);Experiment 1;Orientation;1
1;120;123;3;1.05770349991508;4;-11;382;Houborg et al. (2023b);Experiment 1;Orientation;1
1;72;72;0;1.74137460009661;4;48;383;Houborg et al. (2023b);Experiment 1;Orientation;1
1;97;99;2;2.29271489998791;4;-25;384;Houborg et al. (2023b);Experiment 1;Orientation;1
1;133;133;0;0.958011699956842;4;-36;385;Houborg et al. (2023b);Experiment 1;Orientation;1
1;164;164;0;1.75875130004715;4;-31;386;Houborg et al. (2023b);Experiment 1;Orientation;1
1;127;137;10;1.25776739988942;4;37;387;Houborg et al. (2023b);Experiment 1;Orientation;1
1;135;139;4;2.74289419990964;4;-8;388;Houborg et al. (2023b);Experiment 1;Orientation;1
1;82;78;-4;1.40818909998052;4;53;389;Houborg et al. (2023b);Experiment 1;Orientation;1
1;83;78;-5;1.35860229993705;4;-1;390;Houborg et al. (2023b);Experiment 1;Orientation;1
1;76;84;8;2.09176880004816;4;7;391;Houborg et al. (2023b);Experiment 1;Orientation;1
1;61;62;1;1.47472940001171;4;15;392;Houborg et al. (2023b);Experiment 1;Orientation;1
1;159;152;-7;1.00742190005258;4;82;393;Houborg et al. (2023b);Experiment 1;Orientation;1
1;117;118;1;1.07542110001668;4;42;394;Houborg et al. (2023b);Experiment 1;Orientation;1
1;76;70;-6;1.64146229997277;4;41;395;Houborg et al. (2023b);Experiment 1;Orientation;1
1;164;163;-1;1.20816100004595;4;-88;396;Houborg et al. (2023b);Experiment 1;Orientation;1
1;113;110;-3;1.45794420002494;4;51;397;Houborg et al. (2023b);Experiment 1;Orientation;1
1;23;21;-2;1.80873119994067;4;90;398;Houborg et al. (2023b);Experiment 1;Orientation;1
1;11;19;8;2.4591452999739;4;12;399;Houborg et al. (2023b);Experiment 1;Orientation;1
1;97;98;1;3.12631630001124;4;-86;400;Houborg et al. (2023b);Experiment 1;Orientation;1
1;65;67;2;0.837785600102507;5;32;401;Houborg et al. (2023b);Experiment 1;Orientation;1
1;115;110;-5;1.80857510003261;5;-50;402;Houborg et al. (2023b);Experiment 1;Orientation;1
1;174;174;0;1.80808439990506;5;-59;403;Houborg et al. (2023b);Experiment 1;Orientation;1
1;145;140;-5;2.19205449998844;5;29;404;Houborg et al. (2023b);Experiment 1;Orientation;1
1;42;45;3;1.0412975999061;5;-77;405;Houborg et al. (2023b);Experiment 1;Orientation;1
1;119;119;0;2.0753274000017;5;-77;406;Houborg et al. (2023b);Experiment 1;Orientation;1
1;77;69;-8;1.15546470007394;5;42;407;Houborg et al. (2023b);Experiment 1;Orientation;1
1;170;166;-4;0.690829299972393;5;87;408;Houborg et al. (2023b);Experiment 1;Orientation;1
1;168;162;-6;1.7749834000133;5;2;409;Houborg et al. (2023b);Experiment 1;Orientation;1
1;9;172;-17;2.55651699996088;5;-21;410;Houborg et al. (2023b);Experiment 1;Orientation;1
1;54;51;-3;1.4242901999969;5;-45;411;Houborg et al. (2023b);Experiment 1;Orientation;1
1;102;115;13;1.10811259993352;5;-48;412;Houborg et al. (2023b);Experiment 1;Orientation;1
1;143;136;-7;1.84210370003711;5;-41;413;Houborg et al. (2023b);Experiment 1;Orientation;1
1;130;129;-1;1.70818760001566;5;13;414;Houborg et al. (2023b);Experiment 1;Orientation;1
1;75;65;-10;1.87544109998271;5;55;415;Houborg et al. (2023b);Experiment 1;Orientation;1
1;120;125;5;1.05797289998736;5;-45;416;Houborg et al. (2023b);Experiment 1;Orientation;1
1;85;76;-9;1.27440820005722;5;35;417;Houborg et al. (2023b);Experiment 1;Orientation;1
1;99;96;-3;4.29386480001267;5;-14;418;Houborg et al. (2023b);Experiment 1;Orientation;1
1;131;145;14;1.1246836000355;5;-32;419;Houborg et al. (2023b);Experiment 1;Orientation;1
1;152;157;5;1.95929479994811;5;-21;420;Houborg et al. (2023b);Experiment 1;Orientation;1
1;19;17;-2;3.99380980001297;5;-47;421;Houborg et al. (2023b);Experiment 1;Orientation;1
1;164;158;-6;2.15882079990115;5;35;422;Houborg et al. (2023b);Experiment 1;Orientation;1
1;139;140;1;2.52574660000391;5;25;423;Houborg et al. (2023b);Experiment 1;Orientation;1
1;138;138;0;4.32667070010211;5;1;424;Houborg et al. (2023b);Experiment 1;Orientation;1
1;123;127;4;1.22537020000163;5;15;425;Houborg et al. (2023b);Experiment 1;Orientation;1
1;69;66;-3;1.72582079994027;5;54;426;Houborg et al. (2023b);Experiment 1;Orientation;1
1;173;171;-2;14.3522682999028;5;76;427;Houborg et al. (2023b);Experiment 1;Orientation;1
1;50;44;-6;1.30275399994571;5;-57;428;Houborg et al. (2023b);Experiment 1;Orientation;1
1;17;32;15;1.55849239998497;5;33;429;Houborg et al. (2023b);Experiment 1;Orientation;1
1;117;122;5;0.758223699987866;5;80;430;Houborg et al. (2023b);Experiment 1;Orientation;1
1;110;115;5;1.64177679992281;5;7;431;Houborg et al. (2023b);Experiment 1;Orientation;1
1;67;70;3;2.00639500003308;5;43;432;Houborg et al. (2023b);Experiment 1;Orientation;1
1;148;148;0;2.07572399999481;5;-81;433;Houborg et al. (2023b);Experiment 1;Orientation;1
1;7;12;5;0.990119499969296;5;-39;434;Houborg et al. (2023b);Experiment 1;Orientation;1
1;17;14;-3;0.95737309998367;5;-10;435;Houborg et al. (2023b);Experiment 1;Orientation;1
1;137;129;-8;1.47475500009023;5;60;436;Houborg et al. (2023b);Experiment 1;Orientation;1
1;20;21;1;1.17264789994806;5;-63;437;Houborg et al. (2023b);Experiment 1;Orientation;1
1;30;29;-1;1.90832639997825;5;-10;438;Houborg et al. (2023b);Experiment 1;Orientation;1
1;92;93;1;0.823957899934612;5;-62;439;Houborg et al. (2023b);Experiment 1;Orientation;1
1;170;171;1;2.25846059992909;5;-78;440;Houborg et al. (2023b);Experiment 1;Orientation;1
1;92;99;7;1.45833310007583;5;78;441;Houborg et al. (2023b);Experiment 1;Orientation;1
1;137;135;-2;1.27470579999499;5;-45;442;Houborg et al. (2023b);Experiment 1;Orientation;1
1;95;99;4;1.57537259999663;5;42;443;Houborg et al. (2023b);Experiment 1;Orientation;1
1;155;149;-6;2.40900200000033;5;-60;444;Houborg et al. (2023b);Experiment 1;Orientation;1
1;122;118;-4;1.64196779998019;5;33;445;Houborg et al. (2023b);Experiment 1;Orientation;1
1;107;112;5;2.09197249996942;5;15;446;Houborg et al. (2023b);Experiment 1;Orientation;1
1;70;73;3;1.92577390000224;5;37;447;Houborg et al. (2023b);Experiment 1;Orientation;1
1;89;93;4;0.957651699893177;5;-19;448;Houborg et al. (2023b);Experiment 1;Orientation;1
1;140;137;-3;2.23948410002049;5;-51;449;Houborg et al. (2023b);Experiment 1;Orientation;1
1;39;44;5;1.39171860006172;5;-79;450;Houborg et al. (2023b);Experiment 1;Orientation;1
1;122;122;0;1.49135010002647;5;-83;451;Houborg et al. (2023b);Experiment 1;Orientation;1
1;72;59;-13;2.24185240000952;5;50;452;Houborg et al. (2023b);Experiment 1;Orientation;1
1;112;67;-45;14.7358974999515;5;-40;453;Houborg et al. (2023b);Experiment 1;Orientation;1
1;14;24;10;1.24103030003607;5;-82;454;Houborg et al. (2023b);Experiment 1;Orientation;1
1;150;149;-1;0.756813899963163;5;44;455;Houborg et al. (2023b);Experiment 1;Orientation;1
1;80;77;-3;2.34243230009452;5;70;456;Houborg et al. (2023b);Experiment 1;Orientation;1
1;55;44;-11;0.941058999975212;5;25;457;Houborg et al. (2023b);Experiment 1;Orientation;1
1;54;52;-2;1.52519910002593;5;1;458;Houborg et al. (2023b);Experiment 1;Orientation;1
1;144;147;3;2.4264568000799;5;-90;459;Houborg et al. (2023b);Experiment 1;Orientation;1
1;75;32;-43;5.7455102999229;5;69;460;Houborg et al. (2023b);Experiment 1;Orientation;1
1;62;52;-10;1.15838100004476;5;13;461;Houborg et al. (2023b);Experiment 1;Orientation;1
1;116;121;5;0.690526699996553;5;-54;462;Houborg et al. (2023b);Experiment 1;Orientation;1
1;80;72;-8;1.45791460003238;5;36;463;Houborg et al. (2023b);Experiment 1;Orientation;1
1;118;114;-4;1.02501300000586;5;-38;464;Houborg et al. (2023b);Experiment 1;Orientation;1
1;112;109;-3;1.07481760007795;5;6;465;Houborg et al. (2023b);Experiment 1;Orientation;1
1;77;70;-7;2.27603649999946;5;35;466;Houborg et al. (2023b);Experiment 1;Orientation;1
1;153;162;9;1.72765659994911;5;-76;467;Houborg et al. (2023b);Experiment 1;Orientation;1
1;85;88;3;2.82577100000344;5;68;468;Houborg et al. (2023b);Experiment 1;Orientation;1
1;107;102;-5;1.70863320003264;5;-22;469;Houborg et al. (2023b);Experiment 1;Orientation;1
1;84;81;-3;1.77565849991515;5;23;470;Houborg et al. (2023b);Experiment 1;Orientation;1
1;65;56;-9;4.71048440004233;5;19;471;Houborg et al. (2023b);Experiment 1;Orientation;1
1;55;48;-7;1.55803009995725;5;10;472;Houborg et al. (2023b);Experiment 1;Orientation;1
1;176;169;-7;1.92270880006254;5;59;473;Houborg et al. (2023b);Experiment 1;Orientation;1
1;120;129;9;1.05758060002699;5;56;474;Houborg et al. (2023b);Experiment 1;Orientation;1
1;112;111;-1;1.50846019992605;5;8;475;Houborg et al. (2023b);Experiment 1;Orientation;1
1;68;58;-10;1.1745765999658;5;44;476;Houborg et al. (2023b);Experiment 1;Orientation;1
1;37;48;11;1.50844980007969;5;31;477;Houborg et al. (2023b);Experiment 1;Orientation;1
1;48;66;18;2.19213720003609;5;-11;478;Houborg et al. (2023b);Experiment 1;Orientation;1
1;140;148;8;1.22471520002;5;88;479;Houborg et al. (2023b);Experiment 1;Orientation;1
1;82;79;-3;1.49171860003844;5;58;480;Houborg et al. (2023b);Experiment 1;Orientation;1
1;129;128;-1;0.574036799953319;5;-47;481;Houborg et al. (2023b);Experiment 1;Orientation;1
1;115;118;3;0.690660299966112;5;14;482;Houborg et al. (2023b);Experiment 1;Orientation;1
1;77;75;-2;0.991704100044444;5;38;483;Houborg et al. (2023b);Experiment 1;Orientation;1
1;5;6;1;2.05860109999776;5;72;484;Houborg et al. (2023b);Experiment 1;Orientation;1
1;47;39;-8;1.3077700000722;5;-42;485;Houborg et al. (2023b);Experiment 1;Orientation;1
1;43;37;-6;1.55825199990068;5;4;486;Houborg et al. (2023b);Experiment 1;Orientation;1
1;30;20;-10;0.906994799966924;5;13;487;Houborg et al. (2023b);Experiment 1;Orientation;1
1;179;4;5;2.35924290004186;5;31;488;Houborg et al. (2023b);Experiment 1;Orientation;1
1;146;140;-6;0.822994900052436;5;33;489;Houborg et al. (2023b);Experiment 1;Orientation;1
1;18;17;-1;1.05751469999086;5;-52;490;Houborg et al. (2023b);Experiment 1;Orientation;1
1;158;154;-4;1.25840519997291;5;40;491;Houborg et al. (2023b);Experiment 1;Orientation;1
1;62;58;-4;2.72494099999312;5;-84;492;Houborg et al. (2023b);Experiment 1;Orientation;1
1;5;169;-16;6.3953707999317;5;57;493;Houborg et al. (2023b);Experiment 1;Orientation;1
1;107;114;7;0.890712999971583;5;78;494;Houborg et al. (2023b);Experiment 1;Orientation;1
1;88;88;0;1.73977949994151;5;19;495;Houborg et al. (2023b);Experiment 1;Orientation;1
1;143;150;7;1.09120749996509;5;-55;496;Houborg et al. (2023b);Experiment 1;Orientation;1
1;107;104;-3;1.37470440007746;5;36;497;Houborg et al. (2023b);Experiment 1;Orientation;1
1;135;137;2;1.27446359989699;5;-28;498;Houborg et al. (2023b);Experiment 1;Orientation;1
1;166;165;-1;1.30833620007616;5;-31;499;Houborg et al. (2023b);Experiment 1;Orientation;1
1;55;45;-10;0.973750700009987;5;-69;500;Houborg et al. (2023b);Experiment 1;Orientation;1
1;72;62;-10;0.607853599940427;6;-17;501;Houborg et al. (2023b);Experiment 1;Orientation;1
1;83;68;-15;0.757689199992456;6;-11;502;Houborg et al. (2023b);Experiment 1;Orientation;1
1;109;108;-1;1.35824839991983;6;-26;503;Houborg et al. (2023b);Experiment 1;Orientation;1
1;77;68;-9;0.657047500018962;6;32;504;Houborg et al. (2023b);Experiment 1;Orientation;1
1;145;147;2;0.791099000023678;6;-68;505;Houborg et al. (2023b);Experiment 1;Orientation;1
1;85;77;-8;1.17439159995411;6;60;506;Houborg et al. (2023b);Experiment 1;Orientation;1
1;101;108;7;1.7415156000061;6;-16;507;Houborg et al. (2023b);Experiment 1;Orientation;1
1;40;39;-1;0.72683300008066;6;61;508;Houborg et al. (2023b);Experiment 1;Orientation;1
1;149;142;-7;1.99206399999093;6;71;509;Houborg et al. (2023b);Experiment 1;Orientation;1
1;100;105;5;1.84188140009064;6;49;510;Houborg et al. (2023b);Experiment 1;Orientation;1
1;7;11;4;1.22467759996653;6;-87;511;Houborg et al. (2023b);Experiment 1;Orientation;1
1;64;44;-20;1.67477390007116;6;-57;512;Houborg et al. (2023b);Experiment 1;Orientation;1
1;147;153;6;1.70605979999527;6;-83;513;Houborg et al. (2023b);Experiment 1;Orientation;1
1;46;37;-9;1.85867630003486;6;-79;514;Houborg et al. (2023b);Experiment 1;Orientation;1
1;121;112;-9;1.24139659991488;6;-75;515;Houborg et al. (2023b);Experiment 1;Orientation;1
1;15;21;6;0.724700000020675;6;-74;516;Houborg et al. (2023b);Experiment 1;Orientation;1
1;7;11;4;1.65848039998673;6;8;517;Houborg et al. (2023b);Experiment 1;Orientation;1
1;178;176;-2;1.47510959999636;6;9;518;Houborg et al. (2023b);Experiment 1;Orientation;1
1;150;149;-1;1.15877380000893;6;28;519;Houborg et al. (2023b);Experiment 1;Orientation;1
1;90;81;-9;1.22487909998745;6;60;520;Houborg et al. (2023b);Experiment 1;Orientation;1
1;36;40;4;0.757855400093831;6;54;521;Houborg et al. (2023b);Experiment 1;Orientation;1
1;116;118;2;2.15833639993798;6;-80;522;Houborg et al. (2023b);Experiment 1;Orientation;1
1;97;98;1;0.824357500066981;6;19;523;Houborg et al. (2023b);Experiment 1;Orientation;1
1;128;131;3;0.940840800059959;6;-31;524;Houborg et al. (2023b);Experiment 1;Orientation;1
1;92;81;-11;0.958112000022084;6;36;525;Houborg et al. (2023b);Experiment 1;Orientation;1
1;138;141;3;0.774249100009911;6;-46;526;Houborg et al. (2023b);Experiment 1;Orientation;1
1;81;71;-10;1.64186259999406;6;57;527;Houborg et al. (2023b);Experiment 1;Orientation;1
1;178;167;-11;3.86037369992118;6;83;528;Houborg et al. (2023b);Experiment 1;Orientation;1
1;37;35;-2;2.12553880002815;6;-39;529;Houborg et al. (2023b);Experiment 1;Orientation;1
1;74;64;-10;0.924214200000279;6;-37;530;Houborg et al. (2023b);Experiment 1;Orientation;1
1;168;169;1;1.70859489997383;6;86;531;Houborg et al. (2023b);Experiment 1;Orientation;1
1;51;52;1;1.341683799983;6;-63;532;Houborg et al. (2023b);Experiment 1;Orientation;1
1;153;148;-5;2.99265679996461;6;78;533;Houborg et al. (2023b);Experiment 1;Orientation;1
1;164;159;-5;1.25852800009307;6;-11;534;Houborg et al. (2023b);Experiment 1;Orientation;1
1;66;56;-10;1.12584039999638;6;-82;535;Houborg et al. (2023b);Experiment 1;Orientation;1
1;40;36;-4;1.67495919996873;6;26;536;Houborg et al. (2023b);Experiment 1;Orientation;1
1;16;21;5;1.19158260000404;6;24;537;Houborg et al. (2023b);Experiment 1;Orientation;1
1;9;14;5;0.724084299989045;6;7;538;Houborg et al. (2023b);Experiment 1;Orientation;1
1;129;130;1;1.24183519999497;6;60;539;Houborg et al. (2023b);Experiment 1;Orientation;1
1;175;168;-7;0.858501599985175;6;-46;540;Houborg et al. (2023b);Experiment 1;Orientation;1
1;117;132;15;2.59286269999575;6;58;541;Houborg et al. (2023b);Experiment 1;Orientation;1
1;148;145;-3;1.55813719995786;6;-31;542;Houborg et al. (2023b);Experiment 1;Orientation;1
1;71;133;62;2.99118669994641;6;77;543;Houborg et al. (2023b);Experiment 1;Orientation;1
1;34;34;0;1.42427359998692;6;37;544;Houborg et al. (2023b);Experiment 1;Orientation;1
1;90;82;-8;1.29110160004348;6;-56;545;Houborg et al. (2023b);Experiment 1;Orientation;1
1;102;109;7;1.77378799999133;6;-12;546;Houborg et al. (2023b);Experiment 1;Orientation;1
1;170;162;-8;2.90805800003;6;-68;547;Houborg et al. (2023b);Experiment 1;Orientation;1
1;168;157;-11;1.40807180001866;6;2;548;Houborg et al. (2023b);Experiment 1;Orientation;1
1;15;19;4;0.791146899922751;6;-27;549;Houborg et al. (2023b);Experiment 1;Orientation;1
1;115;140;25;1.95670600002632;6;80;550;Houborg et al. (2023b);Experiment 1;Orientation;1
1;76;61;-15;0.807599799940363;6;39;551;Houborg et al. (2023b);Experiment 1;Orientation;1
1;123;124;1;1.40804779995233;6;-47;552;Houborg et al. (2023b);Experiment 1;Orientation;1
1;161;151;-10;0.957595400046557;6;-38;553;Houborg et al. (2023b);Experiment 1;Orientation;1
1;4;9;5;0.77389910002239;6;-23;554;Houborg et al. (2023b);Experiment 1;Orientation;1
1;172;174;2;1.14089409995358;6;12;555;Houborg et al. (2023b);Experiment 1;Orientation;1
1;29;40;11;0.841201999923214;6;-37;556;Houborg et al. (2023b);Experiment 1;Orientation;1
1;118;114;-4;2.59283579990733;6;-89;557;Houborg et al. (2023b);Experiment 1;Orientation;1
1;16;18;2;1.59130869992077;6;-78;558;Houborg et al. (2023b);Experiment 1;Orientation;1
1;62;73;11;1.59135280002374;6;-46;559;Houborg et al. (2023b);Experiment 1;Orientation;1
1;163;156;-7;1.15853110002354;6;79;560;Houborg et al. (2023b);Experiment 1;Orientation;1
1;37;41;4;1.65764940006193;6;-54;561;Houborg et al. (2023b);Experiment 1;Orientation;1
1;96;88;-8;1.00825339998119;6;-59;562;Houborg et al. (2023b);Experiment 1;Orientation;1
1;96;94;-2;1.70857290003914;6;0;563;Houborg et al. (2023b);Experiment 1;Orientation;1
1;154;148;-6;0.906707599991933;6;-58;564;Houborg et al. (2023b);Experiment 1;Orientation;1
1;160;157;-3;1.19177749997471;6;-6;565;Houborg et al. (2023b);Experiment 1;Orientation;1
1;17;22;5;0.957814400084317;6;-37;566;Houborg et al. (2023b);Experiment 1;Orientation;1
1;99;110;11;2.40926419990137;6;-82;567;Houborg et al. (2023b);Experiment 1;Orientation;1
1;100;99;-1;1.32458380004391;6;-1;568;Houborg et al. (2023b);Experiment 1;Orientation;1
1;86;76;-10;0.87367990007624;6;14;569;Houborg et al. (2023b);Experiment 1;Orientation;1
1;59;50;-9;0.924445999902673;6;27;570;Houborg et al. (2023b);Experiment 1;Orientation;1
1;170;166;-4;1.15816919994541;6;69;571;Houborg et al. (2023b);Experiment 1;Orientation;1
1;44;50;6;0.991469400003552;6;-54;572;Houborg et al. (2023b);Experiment 1;Orientation;1
1;47;49;2;1.25995169999078;6;-3;573;Houborg et al. (2023b);Experiment 1;Orientation;1
1;165;143;-22;1.14109350007493;6;62;574;Houborg et al. (2023b);Experiment 1;Orientation;1
1;155;149;-6;0.774280900019221;6;10;575;Houborg et al. (2023b);Experiment 1;Orientation;1
1;58;44;-14;0.94083740003407;6;-83;576;Houborg et al. (2023b);Experiment 1;Orientation;1
1;63;64;1;0.557179600000381;6;-5;577;Houborg et al. (2023b);Experiment 1;Orientation;1
1;135;127;-8;1.37455550010782;6;-72;578;Houborg et al. (2023b);Experiment 1;Orientation;1
1;160;142;-18;1.42498629994225;6;-25;579;Houborg et al. (2023b);Experiment 1;Orientation;1
1;136;141;5;1.82480270008091;6;24;580;Houborg et al. (2023b);Experiment 1;Orientation;1
1;164;163;-1;0.97440770000685;6;-28;581;Houborg et al. (2023b);Experiment 1;Orientation;1
1;157;154;-3;1.91009040002245;6;7;582;Houborg et al. (2023b);Experiment 1;Orientation;1
1;152;146;-6;1.70730649994221;6;5;583;Houborg et al. (2023b);Experiment 1;Orientation;1
1;137;125;-12;2.24216300004628;6;15;584;Houborg et al. (2023b);Experiment 1;Orientation;1
1;85;66;-19;1.22407300001942;6;52;585;Houborg et al. (2023b);Experiment 1;Orientation;1
1;79;71;-8;0.957747899927199;6;6;586;Houborg et al. (2023b);Experiment 1;Orientation;1
1;8;23;15;16.2367745001102;6;71;587;Houborg et al. (2023b);Experiment 1;Orientation;1
1;102;109;7;0.774880099925213;6;86;588;Houborg et al. (2023b);Experiment 1;Orientation;1
1;94;108;14;2.09228340000845;6;8;589;Houborg et al. (2023b);Experiment 1;Orientation;1
1;104;114;10;2.34248500003014;6;-10;590;Houborg et al. (2023b);Experiment 1;Orientation;1
1;101;104;3;0.924409299972467;6;3;591;Houborg et al. (2023b);Experiment 1;Orientation;1
1;127;129;2;2.17582989996299;6;-26;592;Houborg et al. (2023b);Experiment 1;Orientation;1
1;135;136;1;0.791541600017808;6;-8;593;Houborg et al. (2023b);Experiment 1;Orientation;1
1;5;14;9;1.54214159992989;6;-50;594;Houborg et al. (2023b);Experiment 1;Orientation;1
1;38;26;-12;1.04153329995461;6;-33;595;Houborg et al. (2023b);Experiment 1;Orientation;1
1;85;78;-7;2.05869530001655;6;-47;596;Houborg et al. (2023b);Experiment 1;Orientation;1
1;2;9;7;1.72567820001859;6;83;597;Houborg et al. (2023b);Experiment 1;Orientation;1
1;7;8;1;1.42475090001244;6;-5;598;Houborg et al. (2023b);Experiment 1;Orientation;1
1;178;0;2;2.02671720006038;6;9;599;Houborg et al. (2023b);Experiment 1;Orientation;1
1;164;164;0;2.57436860003509;6;14;600;Houborg et al. (2023b);Experiment 1;Orientation;1
2;141;147;6;1.2733440999873;1;NaN;1;Houborg et al. (2023b);Experiment 1;Orientation;1
2;170;159;-11;2.40709480002988;1;-29;2;Houborg et al. (2023b);Experiment 1;Orientation;1
2;35;35;0;1.92507809994277;1;-45;3;Houborg et al. (2023b);Experiment 1;Orientation;1
2;12;16;4;2.05904439999722;1;23;4;Houborg et al. (2023b);Experiment 1;Orientation;1
2;169;165;-4;1.44428519997746;1;23;5;Houborg et al. (2023b);Experiment 1;Orientation;1
2;7;9;2;1.70865290006623;1;-18;6;Houborg et al. (2023b);Experiment 1;Orientation;1
2;4;9;5;0.840692400000989;1;3;7;Houborg et al. (2023b);Experiment 1;Orientation;1
2;88;92;4;2.09034120000433;1;-84;8;Houborg et al. (2023b);Experiment 1;Orientation;1
2;68;74;6;1.14388200000394;1;20;9;Houborg et al. (2023b);Experiment 1;Orientation;1
2;158;159;1;0.791356000001542;1;-90;10;Houborg et al. (2023b);Experiment 1;Orientation;1
2;5;7;2;2.20878769992851;1;-27;11;Houborg et al. (2023b);Experiment 1;Orientation;1
2;135;127;-8;1.60850919992663;1;50;12;Houborg et al. (2023b);Experiment 1;Orientation;1
2;175;176;1;3.69350289995782;1;-40;13;Houborg et al. (2023b);Experiment 1;Orientation;1
2;126;131;5;1.47491859993897;1;49;14;Houborg et al. (2023b);Experiment 1;Orientation;1
2;68;71;3;1.35795320000034;1;58;15;Houborg et al. (2023b);Experiment 1;Orientation;1
2;87;86;-1;1.72544990002643;1;-19;16;Houborg et al. (2023b);Experiment 1;Orientation;1
2;36;30;-6;1.17496509989724;1;51;17;Houborg et al. (2023b);Experiment 1;Orientation;1
2;143;136;-7;1.42511290009134;1;73;18;Houborg et al. (2023b);Experiment 1;Orientation;1
2;28;29;1;2.12559880001936;1;-65;19;Houborg et al. (2023b);Experiment 1;Orientation;1
2;0;1;1;2.31010919995606;1;28;20;Houborg et al. (2023b);Experiment 1;Orientation;1
2;102;104;2;2.65933840000071;1;78;21;Houborg et al. (2023b);Experiment 1;Orientation;1
2;83;78;-5;2.17576120002195;1;19;22;Houborg et al. (2023b);Experiment 1;Orientation;1
2;168;168;0;0.705804800032638;1;-85;23;Houborg et al. (2023b);Experiment 1;Orientation;1
2;38;40;2;0.825146600021981;1;-50;24;Houborg et al. (2023b);Experiment 1;Orientation;1
2;162;159;-3;1.0067058999557;1;56;25;Houborg et al. (2023b);Experiment 1;Orientation;1
2;55;55;0;1.07588170003146;1;-73;26;Houborg et al. (2023b);Experiment 1;Orientation;1
2;95;100;5;1.39150699996389;1;-40;27;Houborg et al. (2023b);Experiment 1;Orientation;1
2;66;70;4;0.957945200032555;1;29;28;Houborg et al. (2023b);Experiment 1;Orientation;1
2;70;78;8;1.82538489997387;1;-4;29;Houborg et al. (2023b);Experiment 1;Orientation;1
2;95;101;6;1.95893379999325;1;-25;30;Houborg et al. (2023b);Experiment 1;Orientation;1
2;140;142;2;1.54160200001206;1;-45;31;Houborg et al. (2023b);Experiment 1;Orientation;1
2;45;34;-11;1.05832890002057;1;-85;32;Houborg et al. (2023b);Experiment 1;Orientation;1
2;93;99;6;2.37293620000128;1;-48;33;Houborg et al. (2023b);Experiment 1;Orientation;1
2;140;136;-4;1.52509080001619;1;-47;34;Houborg et al. (2023b);Experiment 1;Orientation;1
2;169;167;-2;1.59213339991402;1;-29;35;Houborg et al. (2023b);Experiment 1;Orientation;1
2;49;36;-13;0.726156700053252;1;-60;36;Houborg et al. (2023b);Experiment 1;Orientation;1
2;47;36;-11;0.640551200020127;1;2;37;Houborg et al. (2023b);Experiment 1;Orientation;1
2;43;41;-2;0.539018400013447;1;4;38;Houborg et al. (2023b);Experiment 1;Orientation;1
2;25;29;4;2.15694540005643;1;18;39;Houborg et al. (2023b);Experiment 1;Orientation;1
2;170;172;2;2.47642960003577;1;35;40;Houborg et al. (2023b);Experiment 1;Orientation;1
2;145;135;-10;1.80840180011;1;25;41;Houborg et al. (2023b);Experiment 1;Orientation;1
2;57;57;0;1.19119280006271;1;88;42;Houborg et al. (2023b);Experiment 1;Orientation;1
2;2;4;2;2.25889329996426;1;55;43;Houborg et al. (2023b);Experiment 1;Orientation;1
2;77;76;-1;0.924739600042813;1;-75;44;Houborg et al. (2023b);Experiment 1;Orientation;1
2;19;12;-7;1.19167550001293;1;58;45;Houborg et al. (2023b);Experiment 1;Orientation;1
2;112;101;-11;2.19286080007441;1;87;46;Houborg et al. (2023b);Experiment 1;Orientation;1
2;110;104;-6;1.85913919995073;1;2;47;Houborg et al. (2023b);Experiment 1;Orientation;1
2;26;22;-4;0.859329700004309;1;84;48;Houborg et al. (2023b);Experiment 1;Orientation;1
2;164;151;-13;1.84020450001117;1;42;49;Houborg et al. (2023b);Experiment 1;Orientation;1
2;158;149;-9;1.50823389994912;1;6;50;Houborg et al. (2023b);Experiment 1;Orientation;1
2;122;114;-8;0.724820100003853;1;36;51;Houborg et al. (2023b);Experiment 1;Orientation;1
2;145;136;-9;1.35912580008153;1;-23;52;Houborg et al. (2023b);Experiment 1;Orientation;1
2;109;110;1;0.824379400000907;1;36;53;Houborg et al. (2023b);Experiment 1;Orientation;1
2;119;109;-10;1.4585765999509;1;-10;54;Houborg et al. (2023b);Experiment 1;Orientation;1
2;130;114;-16;2.5926419000607;1;-11;55;Houborg et al. (2023b);Experiment 1;Orientation;1
2;100;103;3;0.940978899947368;1;30;56;Houborg et al. (2023b);Experiment 1;Orientation;1
2;125;102;-23;2.05947510001715;1;-25;57;Houborg et al. (2023b);Experiment 1;Orientation;1
2;20;16;-4;2.42626570002176;1;-75;58;Houborg et al. (2023b);Experiment 1;Orientation;1
2;112;103;-9;2.02518110000528;1;88;59;Houborg et al. (2023b);Experiment 1;Orientation;1
2;80;82;2;2.32606869994197;1;32;60;Houborg et al. (2023b);Experiment 1;Orientation;1
2;60;63;3;1.30823060008697;2;20;61;Houborg et al. (2023b);Experiment 1;Orientation;1
2;106;107;1;1.77544729993679;2;-46;62;Houborg et al. (2023b);Experiment 1;Orientation;1
2;137;138;1;2.50940320000518;2;-31;63;Houborg et al. (2023b);Experiment 1;Orientation;1
2;71;75;4;0.841518600005656;2;66;64;Houborg et al. (2023b);Experiment 1;Orientation;1
2;60;64;4;0.889495900017209;2;11;65;Houborg et al. (2023b);Experiment 1;Orientation;1
2;156;158;2;3.14294729998801;2;84;66;Houborg et al. (2023b);Experiment 1;Orientation;1
2;56;75;19;2.37357109994628;2;-80;67;Houborg et al. (2023b);Experiment 1;Orientation;1
2;25;11;-14;0.791487599955872;2;31;68;Houborg et al. (2023b);Experiment 1;Orientation;1
2;156;145;-11;1.95939499989618;2;49;69;Houborg et al. (2023b);Experiment 1;Orientation;1
2;9;10;1;1.89180360001046;2;-33;70;Houborg et al. (2023b);Experiment 1;Orientation;1
2;9;12;3;1.42506600008346;2;0;71;Houborg et al. (2023b);Experiment 1;Orientation;1
2;4;6;2;2.55947969993576;2;5;72;Houborg et al. (2023b);Experiment 1;Orientation;1
2;135;131;-4;1.14174769993406;2;49;73;Houborg et al. (2023b);Experiment 1;Orientation;1
2;100;103;3;2.10922230000142;2;35;74;Houborg et al. (2023b);Experiment 1;Orientation;1
2;35;45;10;0.690730400034226;2;65;75;Houborg et al. (2023b);Experiment 1;Orientation;1
2;80;80;0;1.14207169995643;2;-45;76;Houborg et al. (2023b);Experiment 1;Orientation;1
2;40;56;16;1.64178300008643;2;40;77;Houborg et al. (2023b);Experiment 1;Orientation;1
2;28;30;2;0.942765899933875;2;12;78;Houborg et al. (2023b);Experiment 1;Orientation;1
2;161;161;0;0.738880799966864;2;47;79;Houborg et al. (2023b);Experiment 1;Orientation;1
2;165;162;-3;1.89216549997218;2;-4;80;Houborg et al. (2023b);Experiment 1;Orientation;1
2;80;80;0;2.07538840000052;2;85;81;Houborg et al. (2023b);Experiment 1;Orientation;1
2;83;81;-2;0.824903600034304;2;-3;82;Houborg et al. (2023b);Experiment 1;Orientation;1
2;47;42;-5;0.691064099897631;2;36;83;Houborg et al. (2023b);Experiment 1;Orientation;1
2;63;67;4;0.807677799952216;2;-16;84;Houborg et al. (2023b);Experiment 1;Orientation;1
2;40;40;0;1.00994890008587;2;23;85;Houborg et al. (2023b);Experiment 1;Orientation;1
2;92;99;7;2.09040979994461;2;-52;86;Houborg et al. (2023b);Experiment 1;Orientation;1
2;82;79;-3;1.69209869997576;2;10;87;Houborg et al. (2023b);Experiment 1;Orientation;1
2;106;99;-7;2.09250310005154;2;-24;88;Houborg et al. (2023b);Experiment 1;Orientation;1
2;53;65;12;1.82522830006201;2;53;89;Houborg et al. (2023b);Experiment 1;Orientation;1
2;35;41;6;0.807961499900557;2;18;90;Houborg et al. (2023b);Experiment 1;Orientation;1
2;21;19;-2;1.49193719995674;2;14;91;Houborg et al. (2023b);Experiment 1;Orientation;1
2;154;157;3;1.30838169995695;2;47;92;Houborg et al. (2023b);Experiment 1;Orientation;1
2;85;84;-1;1.1579673999222;2;69;93;Houborg et al. (2023b);Experiment 1;Orientation;1
2;112;111;-1;1.21055299998261;2;-27;94;Houborg et al. (2023b);Experiment 1;Orientation;1
2;141;142;1;1.19173079996835;2;-29;95;Houborg et al. (2023b);Experiment 1;Orientation;1
2;100;99;-1;0.707998699974269;2;41;96;Houborg et al. (2023b);Experiment 1;Orientation;1
2;130;125;-5;1.60864380002022;2;-30;97;Houborg et al. (2023b);Experiment 1;Orientation;1
2;51;63;12;1.44150899990927;2;79;98;Houborg et al. (2023b);Experiment 1;Orientation;1
2;105;102;-3;2.2231066999957;2;-54;99;Houborg et al. (2023b);Experiment 1;Orientation;1
2;148;145;-3;1.57489950000308;2;-43;100;Houborg et al. (2023b);Experiment 1;Orientation;1
2;64;77;13;1.74207549996208;2;84;101;Houborg et al. (2023b);Experiment 1;Orientation;1
2;117;112;-5;1.77516299998388;2;-53;102;Houborg et al. (2023b);Experiment 1;Orientation;1
2;167;160;-7;3.11042599997018;2;-50;103;Houborg et al. (2023b);Experiment 1;Orientation;1
2;22;14;-8;0.740784200024791;2;-35;104;Houborg et al. (2023b);Experiment 1;Orientation;1
2;162;163;1;1.19121069996618;2;40;105;Houborg et al. (2023b);Experiment 1;Orientation;1
2;126;115;-11;1.07481479994021;2;36;106;Houborg et al. (2023b);Experiment 1;Orientation;1
2;137;119;-18;1.53998619993217;2;-11;107;Houborg et al. (2023b);Experiment 1;Orientation;1
2;167;155;-12;1.75875650008675;2;-30;108;Houborg et al. (2023b);Experiment 1;Orientation;1
2;175;1;6;1.53972489992157;2;-8;109;Houborg et al. (2023b);Experiment 1;Orientation;1
2;11;17;6;0.691295600030571;2;-16;110;Houborg et al. (2023b);Experiment 1;Orientation;1
2;115;104;-11;2.10895490006078;2;76;111;Houborg et al. (2023b);Experiment 1;Orientation;1
2;81;78;-3;1.17522910004482;2;34;112;Houborg et al. (2023b);Experiment 1;Orientation;1
2;58;65;7;0.774782199994661;2;23;113;Houborg et al. (2023b);Experiment 1;Orientation;1
2;124;108;-16;1.67553100001533;2;-66;114;Houborg et al. (2023b);Experiment 1;Orientation;1
2;92;91;-1;2.17553370003588;2;32;115;Houborg et al. (2023b);Experiment 1;Orientation;1
2;99;95;-4;1.50667999999132;2;-7;116;Houborg et al. (2023b);Experiment 1;Orientation;1
2;9;15;6;1.70846039999742;2;90;117;Houborg et al. (2023b);Experiment 1;Orientation;1
2;120;122;2;0.591145799960941;2;69;118;Houborg et al. (2023b);Experiment 1;Orientation;1
2;140;141;1;1.22501580009703;2;-20;119;Houborg et al. (2023b);Experiment 1;Orientation;1
2;10;16;6;1.42517760000192;2;-50;120;Houborg et al. (2023b);Experiment 1;Orientation;1
2;47;50;3;2.50739120005164;3;-37;121;Houborg et al. (2023b);Experiment 1;Orientation;1
2;121;106;-15;1.39170259993989;3;-74;122;Houborg et al. (2023b);Experiment 1;Orientation;1
2;0;4;4;1.79218029999174;3;-59;123;Houborg et al. (2023b);Experiment 1;Orientation;1
2;157;146;-11;1.59214419999626;3;23;124;Houborg et al. (2023b);Experiment 1;Orientation;1
2;156;148;-8;1.84239919995889;3;1;125;Houborg et al. (2023b);Experiment 1;Orientation;1
2;132;131;-1;1.0726585999364;3;24;126;Houborg et al. (2023b);Experiment 1;Orientation;1
2;174;168;-6;1.5421856000321;3;-42;127;Houborg et al. (2023b);Experiment 1;Orientation;1
2;79;83;4;1.9757597000571;3;-85;128;Houborg et al. (2023b);Experiment 1;Orientation;1
2;110;101;-9;1.99257230001967;3;-31;129;Houborg et al. (2023b);Experiment 1;Orientation;1
2;43;56;13;1.50834270007908;3;67;130;Houborg et al. (2023b);Experiment 1;Orientation;1
2;50;51;1;0.974825100041926;3;-7;131;Houborg et al. (2023b);Experiment 1;Orientation;1
2;70;80;10;1.97568860009778;3;-20;132;Houborg et al. (2023b);Experiment 1;Orientation;1
2;63;63;0;0.958323400001973;3;7;133;Houborg et al. (2023b);Experiment 1;Orientation;1
2;137;124;-13;0.991056700004265;3;-74;134;Houborg et al. (2023b);Experiment 1;Orientation;1
2;2;1;-1;1.35831220005639;3;-45;135;Houborg et al. (2023b);Experiment 1;Orientation;1
2;75;80;5;2.29248759988695;3;-73;136;Houborg et al. (2023b);Experiment 1;Orientation;1
2;95;103;8;1.49126599996816;3;-20;137;Houborg et al. (2023b);Experiment 1;Orientation;1
2;104;101;-3;1.97600820008665;3;-9;138;Houborg et al. (2023b);Experiment 1;Orientation;1
2;50;49;-1;0.641528500011191;3;54;139;Houborg et al. (2023b);Experiment 1;Orientation;1
2;103;102;-1;0.875111800036393;3;-53;140;Houborg et al. (2023b);Experiment 1;Orientation;1
2;91;91;0;1.9591765999794;3;12;141;Houborg et al. (2023b);Experiment 1;Orientation;1
2;121;114;-7;0.774544699932449;3;-30;142;Houborg et al. (2023b);Experiment 1;Orientation;1
2;167;169;2;0.791099899914116;3;-46;143;Houborg et al. (2023b);Experiment 1;Orientation;1
2;60;63;3;1.05643410002813;3;-73;144;Houborg et al. (2023b);Experiment 1;Orientation;1
2;166;168;2;1.52524119999725;3;74;145;Houborg et al. (2023b);Experiment 1;Orientation;1
2;5;3;-2;1.28922449995298;3;-19;146;Houborg et al. (2023b);Experiment 1;Orientation;1
2;125;108;-17;0.872609599959105;3;60;147;Houborg et al. (2023b);Experiment 1;Orientation;1
2;119;110;-9;0.975135399959981;3;6;148;Houborg et al. (2023b);Experiment 1;Orientation;1
2;13;20;7;1.64260959997773;3;-74;149;Houborg et al. (2023b);Experiment 1;Orientation;1
2;79;75;-4;1.59205110010225;3;-66;150;Houborg et al. (2023b);Experiment 1;Orientation;1
2;100;102;2;1.77282539999578;3;-21;151;Houborg et al. (2023b);Experiment 1;Orientation;1
2;150;147;-3;1.37304380000569;3;-50;152;Houborg et al. (2023b);Experiment 1;Orientation;1
2;99;102;3;1.99263220001012;3;51;153;Houborg et al. (2023b);Experiment 1;Orientation;1
2;56;57;1;0.705078299972229;3;43;154;Houborg et al. (2023b);Experiment 1;Orientation;1
2;138;136;-2;2.30903330002911;3;-82;155;Houborg et al. (2023b);Experiment 1;Orientation;1
2;51;57;6;0.78859679994639;3;87;156;Houborg et al. (2023b);Experiment 1;Orientation;1
2;32;30;-2;1.63977390003856;3;19;157;Houborg et al. (2023b);Experiment 1;Orientation;1
2;81;83;2;1.72548109991476;3;-49;158;Houborg et al. (2023b);Experiment 1;Orientation;1
2;27;31;4;1.05876789998729;3;54;159;Houborg et al. (2023b);Experiment 1;Orientation;1
2;62;61;-1;0.707593600032851;3;-35;160;Houborg et al. (2023b);Experiment 1;Orientation;1
2;27;13;-14;1.68992199993227;3;35;161;Houborg et al. (2023b);Experiment 1;Orientation;1
2;95;99;4;2.1755295000039;3;-68;162;Houborg et al. (2023b);Experiment 1;Orientation;1
2;137;136;-1;2.37555869994685;3;-42;163;Houborg et al. (2023b);Experiment 1;Orientation;1
2;176;169;-7;1.2581649000058;3;-39;164;Houborg et al. (2023b);Experiment 1;Orientation;1
2;168;161;-7;2.49284459999762;3;8;165;Houborg et al. (2023b);Experiment 1;Orientation;1
2;112;107;-5;0.590934399981052;3;56;166;Houborg et al. (2023b);Experiment 1;Orientation;1
2;58;73;15;2.25909880001564;3;54;167;Houborg et al. (2023b);Experiment 1;Orientation;1
2;177;167;-10;1.67503010004293;3;61;168;Houborg et al. (2023b);Experiment 1;Orientation;1
2;73;81;8;0.741285500000231;3;-76;169;Houborg et al. (2023b);Experiment 1;Orientation;1
2;167;169;2;1.15830310003366;3;86;170;Houborg et al. (2023b);Experiment 1;Orientation;1
2;56;56;0;0.873584800050594;3;-69;171;Houborg et al. (2023b);Experiment 1;Orientation;1
2;29;25;-4;1.82545779994689;3;27;172;Houborg et al. (2023b);Experiment 1;Orientation;1
2;97;99;2;1.00821870006621;3;-68;173;Houborg et al. (2023b);Experiment 1;Orientation;1
2;40;47;7;1.35829220002051;3;57;174;Houborg et al. (2023b);Experiment 1;Orientation;1
2;84;80;-4;0.826417900039814;3;-44;175;Houborg et al. (2023b);Experiment 1;Orientation;1
2;117;108;-9;1.37496789998841;3;-33;176;Houborg et al. (2023b);Experiment 1;Orientation;1
2;90;91;1;1.95924430002924;3;27;177;Houborg et al. (2023b);Experiment 1;Orientation;1
2;176;165;-11;1.65856209991034;3;-86;178;Houborg et al. (2023b);Experiment 1;Orientation;1
