obs;theta;resp;error;rt;block;delta;trial;cond;study;experiment;stimulus;expnum
1;158;155.5;-2.5;1.103432699525;1;NaN;1;1;Pascucci et al. (2024);Experiment 1;Orientation;1
1;179;15;16;3.07953934108446;1;-21;2;1;Pascucci et al. (2024);Experiment 1;Orientation;1
1;74;68;-6;1.81570007797472;1;-75;3;1;Pascucci et al. (2024);Experiment 1;Orientation;1
1;99;124;25;1.93870605678785;1;-25;4;1;Pascucci et al. (2024);Experiment 1;Orientation;1
1;165;146.5;-18.5;1.33721094288376;1;-66;5;1;Pascucci et al. (2024);Experiment 1;Orientation;1
1;60;40.5;-19.5;2.54363806471974;1;-75;6;1;Pascucci et al. (2024);Experiment 1;Orientation;1
1;22;53.5;31.5;1.30953002185379;1;38;7;1;Pascucci et al. (2024);Experiment 1;Orientation;1
1;53;38;-15;2.22898093988715;1;-31;8;1;Pascucci et al. (2024);Experiment 1;Orientation;1
1;144;NaN;NaN;2.0087032651245;1;89;9;1;Pascucci et al. (2024);Experiment 1;Orientation;1
1;102;114.5;12.5;1.73914074895947;1;42;10;1;Pascucci et al. (2024);Experiment 1;Orientation;1
1;89;105.5;16.5;0.986042207329774;1;13;11;1;Pascucci et al. (2024);Experiment 1;Orientation;1
1;93;112;19;0.933966044171029;1;-4;12;1;Pascucci et al. (2024);Experiment 1;Orientation;1
1;69;NaN;NaN;2.00872242360128;1;24;13;1;Pascucci et al. (2024);Experiment 1;Orientation;1
1;158;154.5;-3.5;2.32772852284052;1;-89;14;1;Pascucci et al. (2024);Experiment 1;Orientation;1
1;18;NaN;NaN;2.00870360724002;1;-40;15;1;Pascucci et al. (2024);Experiment 1;Orientation;1
1;87;62;-25;2.33792288559471;1;-69;16;1;Pascucci et al. (2024);Experiment 1;Orientation;1
1;77;NaN;NaN;2.00870771262726;1;10;17;1;Pascucci et al. (2024);Experiment 1;Orientation;1
1;89;109.5;20.5;1.63545198937481;1;-12;18;1;Pascucci et al. (2024);Experiment 1;Orientation;1
1;89;108.5;19.5;1.52587199794198;1;0;19;1;Pascucci et al. (2024);Experiment 1;Orientation;1
1;120;119;-1;1.21301953327202;1;-31;20;1;Pascucci et al. (2024);Experiment 1;Orientation;1
1;53;NaN;NaN;2.00869539646374;1;67;21;1;Pascucci et al. (2024);Experiment 1;Orientation;1
1;35;52.5;17.5;2.65943600846731;1;18;22;1;Pascucci et al. (2024);Experiment 1;Orientation;1
1;53;NaN;NaN;2.00871113378435;1;-18;23;1;Pascucci et al. (2024);Experiment 1;Orientation;1
1;143;141;-2;1.13613485225324;1;-90;24;1;Pascucci et al. (2024);Experiment 1;Orientation;1
1;120;NaN;NaN;2.00869334376966;1;23;25;1;Pascucci et al. (2024);Experiment 1;Orientation;1
1;44;31;-13;1.22601650760043;1;76;26;1;Pascucci et al. (2024);Experiment 1;Orientation;1
1;57;NaN;NaN;2.00869094896007;1;-13;27;1;Pascucci et al. (2024);Experiment 1;Orientation;1
1;171;165.5;-5.5;1.02427910737879;1;66;28;1;Pascucci et al. (2024);Experiment 1;Orientation;1
1;164;NaN;NaN;2.00871421282591;1;7;29;1;Pascucci et al. (2024);Experiment 1;Orientation;1
1;154;150.5;-3.5;1.59832867583373;1;10;30;1;Pascucci et al. (2024);Experiment 1;Orientation;1
1;0;NaN;NaN;2.00869676492675;1;-26;31;1;Pascucci et al. (2024);Experiment 1;Orientation;1
1;93;114.5;21.5;2.85380252656432;1;87;32;1;Pascucci et al. (2024);Experiment 1;Orientation;1
1;5;NaN;NaN;2.00869710704228;1;88;33;1;Pascucci et al. (2024);Experiment 1;Orientation;1
1;136;136.5;0.5;3.27469238310823;1;49;34;1;Pascucci et al. (2024);Experiment 1;Orientation;1
1;132;NaN;NaN;2.00870873897566;1;4;35;1;Pascucci et al. (2024);Experiment 1;Orientation;1
1;10;29.5;19.5;1.83861566982796;1;-58;36;1;Pascucci et al. (2024);Experiment 1;Orientation;1
1;100;NaN;NaN;2.00869950185188;1;-90;37;1;Pascucci et al. (2024);Experiment 1;Orientation;1
1;37;55.5;18.5;2.06832273670625;1;63;38;1;Pascucci et al. (2024);Experiment 1;Orientation;1
1;75;73.5;-1.5;1.77375464405577;1;-38;39;1;Pascucci et al. (2024);Experiment 1;Orientation;1
1;12;41.5;29.5;2.23424883698499;1;63;40;1;Pascucci et al. (2024);Experiment 1;Orientation;1
1;115;133;18;1.22843971289603;1;77;41;1;Pascucci et al. (2024);Experiment 1;Orientation;1
1;92;121.5;29.5;3.39957041887283;1;23;42;1;Pascucci et al. (2024);Experiment 1;Orientation;1
1;27;48;21;1.5234227918545;1;65;43;1;Pascucci et al. (2024);Experiment 1;Orientation;1
1;122;136.5;14.5;1.90549209901565;1;85;44;1;Pascucci et al. (2024);Experiment 1;Orientation;1
1;53;NaN;NaN;2.00872310783325;1;69;45;1;Pascucci et al. (2024);Experiment 1;Orientation;1
1;105;114.5;9.5;1.5725653131376;1;-52;46;1;Pascucci et al. (2024);Experiment 1;Orientation;1
1;101;122;21;2.36959390169159;1;4;47;1;Pascucci et al. (2024);Experiment 1;Orientation;1
1;90;101;11;1.51058182227189;1;11;48;1;Pascucci et al. (2024);Experiment 1;Orientation;1
1;103;NaN;NaN;2.0086878699185;1;-13;49;1;Pascucci et al. (2024);Experiment 1;Orientation;1
1;80;72.5;-7.5;1.28172457072014;1;23;50;1;Pascucci et al. (2024);Experiment 1;Orientation;1
1;175;174.5;-0.5;0.930324907087197;1;NaN;51;1;Pascucci et al. (2024);Experiment 1;Orientation;1
1;5;15.5;10.5;1.46546771301109;1;-10;52;1;Pascucci et al. (2024);Experiment 1;Orientation;1
1;8;26;18;2.53809989624278;1;-3;53;1;Pascucci et al. (2024);Experiment 1;Orientation;1
1;72;65;-7;1.94436772902191;1;-64;54;1;Pascucci et al. (2024);Experiment 1;Orientation;1
1;103;NaN;NaN;2.00870771262817;1;-31;55;1;Pascucci et al. (2024);Experiment 1;Orientation;1
1;20;46;26;1.24192351782494;1;83;56;1;Pascucci et al. (2024);Experiment 1;Orientation;1
1;74;NaN;NaN;2.00872242360219;1;-54;57;1;Pascucci et al. (2024);Experiment 1;Orientation;1
1;19;44.5;25.5;1.29565312602062;1;55;58;1;Pascucci et al. (2024);Experiment 1;Orientation;1
1;50;41;-9;3.18351513571724;1;-31;59;1;Pascucci et al. (2024);Experiment 1;Orientation;1
1;154;169;15;1.70757134121595;1;76;60;1;Pascucci et al. (2024);Experiment 1;Orientation;1
1;46;49.5;3.5;1.63496926416337;1;-72;61;1;Pascucci et al. (2024);Experiment 1;Orientation;1
1;11;28.5;17.5;2.68540771960761;1;35;62;1;Pascucci et al. (2024);Experiment 1;Orientation;1
1;105;136.5;31.5;0.893687397799113;1;86;63;1;Pascucci et al. (2024);Experiment 1;Orientation;1
1;53;38.5;-14.5;1.65383454859148;1;52;64;1;Pascucci et al. (2024);Experiment 1;Orientation;1
1;75;65.5;-9.5;1.96764254232949;1;-22;65;1;Pascucci et al. (2024);Experiment 1;Orientation;1
1;53;52;-1;1.30078554531156;1;22;66;1;Pascucci et al. (2024);Experiment 1;Orientation;1
1;93;NaN;NaN;2.00869402800163;1;-40;67;1;Pascucci et al. (2024);Experiment 1;Orientation;1
1;120;115.5;-4.5;1.80796689535509;1;-27;68;1;Pascucci et al. (2024);Experiment 1;Orientation;1
1;54;NaN;NaN;2.00868889626599;1;66;69;1;Pascucci et al. (2024);Experiment 1;Orientation;1
1;71;66;-5;1.4308935033323;1;-17;70;1;Pascucci et al. (2024);Experiment 1;Orientation;1
1;68;NaN;NaN;2.00870771262817;1;3;71;1;Pascucci et al. (2024);Experiment 1;Orientation;1
1;22;37;15;1.2693800109746;1;46;72;1;Pascucci et al. (2024);Experiment 1;Orientation;1
1;29;NaN;NaN;2.00871797609852;1;-7;73;1;Pascucci et al. (2024);Experiment 1;Orientation;1
1;129;130.5;1.5;2.21752690723315;1;80;74;1;Pascucci et al. (2024);Experiment 1;Orientation;1
1;8;NaN;NaN;2.00870429147108;1;-59;75;1;Pascucci et al. (2024);Experiment 1;Orientation;1
1;142;116;-26;1.53557884586553;1;46;76;1;Pascucci et al. (2024);Experiment 1;Orientation;1
1;172;159.5;-12.5;2.43798692964901;1;-30;77;1;Pascucci et al. (2024);Experiment 1;Orientation;1
1;71;65;-6;1.12873078490793;1;-79;78;1;Pascucci et al. (2024);Experiment 1;Orientation;1
1;45;NaN;NaN;2.00871763398209;1;26;79;1;Pascucci et al. (2024);Experiment 1;Orientation;1
1;108;122;14;1.83457904702937;1;-63;80;1;Pascucci et al. (2024);Experiment 1;Orientation;1
1;151;NaN;NaN;2.00869163319203;1;-43;81;1;Pascucci et al. (2024);Experiment 1;Orientation;1
1;91;103;12;1.22435895717626;1;60;82;1;Pascucci et al. (2024);Experiment 1;Orientation;1
1;93;NaN;NaN;2.00868923838152;1;-2;83;1;Pascucci et al. (2024);Experiment 1;Orientation;1
1;88;107;19;1.51841592901474;1;5;84;1;Pascucci et al. (2024);Experiment 1;Orientation;1
1;114;NaN;NaN;2.00869231742217;1;-26;85;1;Pascucci et al. (2024);Experiment 1;Orientation;1
1;24;65.5;41.5;1.32097071199769;1;90;86;1;Pascucci et al. (2024);Experiment 1;Orientation;1
1;0;NaN;NaN;2.00868855415047;1;24;87;1;Pascucci et al. (2024);Experiment 1;Orientation;1
1;107;117;10;1.18741764917286;1;73;88;1;Pascucci et al. (2024);Experiment 1;Orientation;1
1;57;NaN;NaN;2.00867965914313;1;50;89;1;Pascucci et al. (2024);Experiment 1;Orientation;1
1;177;169.5;-7.5;1.85935848505687;1;60;90;1;Pascucci et al. (2024);Experiment 1;Orientation;1
1;86;NaN;NaN;2.00869950185188;1;-89;91;1;Pascucci et al. (2024);Experiment 1;Orientation;1
1;115;115.5;0.5;2.52795274545042;1;-29;92;1;Pascucci et al. (2024);Experiment 1;Orientation;1
1;40;55.5;15.5;1.60656408425893;1;75;93;1;Pascucci et al. (2024);Experiment 1;Orientation;1
1;71;101;30;2.47427513883667;1;-31;94;1;Pascucci et al. (2024);Experiment 1;Orientation;1
1;23;55;32;1.75568204163665;1;48;95;1;Pascucci et al. (2024);Experiment 1;Orientation;1
1;137;143;6;1.48090362995663;1;66;96;1;Pascucci et al. (2024);Experiment 1;Orientation;1
1;110;NaN;NaN;2.00870737051173;1;27;97;1;Pascucci et al. (2024);Experiment 1;Orientation;1
1;135;119.5;-15.5;1.90081879895479;1;-25;98;1;Pascucci et al. (2024);Experiment 1;Orientation;1
1;56;61;5;1.38887211973542;1;79;99;1;Pascucci et al. (2024);Experiment 1;Orientation;1
1;47;56.5;9.5;1.41738951358002;1;9;100;1;Pascucci et al. (2024);Experiment 1;Orientation;1
1;78;84.5;6.5;1.49937103385946;1;NaN;101;1;Pascucci et al. (2024);Experiment 1;Orientation;1
1;0;0.5;0.5;2.17095299040557;1;78;102;1;Pascucci et al. (2024);Experiment 1;Orientation;1
1;113;NaN;NaN;2.00868102760614;1;67;103;1;Pascucci et al. (2024);Experiment 1;Orientation;1
1;76;72;-4;1.83575592493617;1;37;104;1;Pascucci et al. (2024);Experiment 1;Orientation;1
1;56;60;4;1.1177382662936;1;20;105;1;Pascucci et al. (2024);Experiment 1;Orientation;1
1;28;44;16;1.0449056032794;1;28;106;1;Pascucci et al. (2024);Experiment 1;Orientation;1
1;136;152;16;2.45527677141217;1;72;107;1;Pascucci et al. (2024);Experiment 1;Orientation;1
1;170;174;4;1.28103486552754;1;-34;108;1;Pascucci et al. (2024);Experiment 1;Orientation;1
1;78;62.5;-15.5;1.12151830233961;1;-88;109;1;Pascucci et al. (2024);Experiment 1;Orientation;1
1;29;35.5;6.5;0.928669067241572;1;49;110;1;Pascucci et al. (2024);Experiment 1;Orientation;1
1;52;NaN;NaN;2.00868615934087;1;-23;111;1;Pascucci et al. (2024);Experiment 1;Orientation;1
1;125;132.5;7.5;0.907112700947437;1;-73;112;1;Pascucci et al. (2024);Experiment 1;Orientation;1
1;55;NaN;NaN;2.0087381609228;1;70;113;1;Pascucci et al. (2024);Experiment 1;Orientation;1
1;34;67.5;33.5;1.14180370891609;1;21;114;1;Pascucci et al. (2024);Experiment 1;Orientation;1
1;169;152;-17;1.18869887235905;1;45;115;1;Pascucci et al. (2024);Experiment 1;Orientation;1
1;64;56;-8;2.41688934046942;1;-75;116;1;Pascucci et al. (2024);Experiment 1;Orientation;1
1;1;NaN;NaN;2.00873371341913;1;63;117;1;Pascucci et al. (2024);Experiment 1;Orientation;1
1;123;129.5;6.5;3.74266659306159;1;58;118;1;Pascucci et al. (2024);Experiment 1;Orientation;1
1;30;NaN;NaN;2.00867418529197;1;-87;119;1;Pascucci et al. (2024);Experiment 1;Orientation;1
1;105;116.5;11.5;0.936723154361061;1;-75;120;1;Pascucci et al. (2024);Experiment 1;Orientation;1
1;77;108;31;0.894632663397715;1;28;121;1;Pascucci et al. (2024);Experiment 1;Orientation;1
1;28;60;32;2.37457407950933;1;49;122;1;Pascucci et al. (2024);Experiment 1;Orientation;1
1;174;NaN;NaN;2.00870737051173;1;34;123;1;Pascucci et al. (2024);Experiment 1;Orientation;1
1;3;8.5;5.5;1.134595331735;1;-9;124;1;Pascucci et al. (2024);Experiment 1;Orientation;1
1;60;NaN;NaN;2.00869471223177;1;-57;125;1;Pascucci et al. (2024);Experiment 1;Orientation;1
1;9;16.5;7.5;2.29635685795438;1;51;126;1;Pascucci et al. (2024);Experiment 1;Orientation;1
1;105;NaN;NaN;2.00872652899034;1;84;127;1;Pascucci et al. (2024);Experiment 1;Orientation;1
1;53;33;-20;1.21184539228943;1;52;128;1;Pascucci et al. (2024);Experiment 1;Orientation;1
1;23;21;-2;1.42339774898846;1;30;129;1;Pascucci et al. (2024);Experiment 1;Orientation;1
1;37;32.5;-4.5;1.21049711443175;1;-14;130;1;Pascucci et al. (2024);Experiment 1;Orientation;1
1;47;NaN;NaN;2.00870737051173;1;-10;131;1;Pascucci et al. (2024);Experiment 1;Orientation;1
1;171;175;4;1.13743249699291;1;56;132;1;Pascucci et al. (2024);Experiment 1;Orientation;1
1;117;135;18;1.00766118079173;1;54;133;1;Pascucci et al. (2024);Experiment 1;Orientation;1
1;126;128;2;0.867206960658223;1;-9;134;1;Pascucci et al. (2024);Experiment 1;Orientation;1
1;87;NaN;NaN;2.00870018608293;1;39;135;1;Pascucci et al. (2024);Experiment 1;Orientation;1
1;97;109;12;1.44857609388691;1;-10;136;1;Pascucci et al. (2024);Experiment 1;Orientation;1
1;0;157;-23;1.10609128040142;1;-83;137;1;Pascucci et al. (2024);Experiment 1;Orientation;1
1;52;64;12;0.978064069890024;1;-52;138;1;Pascucci et al. (2024);Experiment 1;Orientation;1
1;73;NaN;NaN;2.00868684357192;1;-21;139;1;Pascucci et al. (2024);Experiment 1;Orientation;1
1;124;136;12;2.44966949557056;1;-51;140;1;Pascucci et al. (2024);Experiment 1;Orientation;1
1;54;NaN;NaN;2.00870429147108;1;70;141;1;Pascucci et al. (2024);Experiment 1;Orientation;1
1;15;22.5;7.5;1.37456039488279;1;39;142;1;Pascucci et al. (2024);Experiment 1;Orientation;1
1;139;NaN;NaN;2.00867007990382;1;56;143;1;Pascucci et al. (2024);Experiment 1;Orientation;1
1;94;106.5;12.5;1.99878259490561;1;45;144;1;Pascucci et al. (2024);Experiment 1;Orientation;1
1;104;NaN;NaN;2.0087213972547;1;-10;145;1;Pascucci et al. (2024);Experiment 1;Orientation;1
1;87;100;13;2.76588461516712;1;17;146;1;Pascucci et al. (2024);Experiment 1;Orientation;1
1;106;96;-10;1.23483077574019;1;-19;147;1;Pascucci et al. (2024);Experiment 1;Orientation;1
1;8;6.5;-1.5;2.41361939888884;1;-82;148;1;Pascucci et al. (2024);Experiment 1;Orientation;1
1;116;NaN;NaN;2.00871626551907;1;72;149;1;Pascucci et al. (2024);Experiment 1;Orientation;1
1;28;31.5;3.5;1.31588687313069;1;88;150;1;Pascucci et al. (2024);Experiment 1;Orientation;1
1;86;70.5;-15.5;1.3187815138208;1;NaN;151;1;Pascucci et al. (2024);Experiment 1;Orientation;1
1;33;54;21;1.66950652534979;1;53;152;1;Pascucci et al. (2024);Experiment 1;Orientation;1
1;29;38.5;9.5;2.57452392535288;1;4;153;1;Pascucci et al. (2024);Experiment 1;Orientation;1
1;140;146;6;0.971258704968932;1;69;154;1;Pascucci et al. (2024);Experiment 1;Orientation;1
1;91;NaN;NaN;2.00869881762083;1;49;155;1;Pascucci et al. (2024);Experiment 1;Orientation;1
1;47;34.5;-12.5;1.27577620555348;1;44;156;1;Pascucci et al. (2024);Experiment 1;Orientation;1
1;77;NaN;NaN;2.00872481841179;1;-30;157;1;Pascucci et al. (2024);Experiment 1;Orientation;1
1;158;149.5;-8.5;1.61612074340337;1;-81;158;1;Pascucci et al. (2024);Experiment 1;Orientation;1
1;22;22.5;0.5;1.77114909110787;1;-44;159;1;Pascucci et al. (2024);Experiment 1;Orientation;1
1;105;134;29;2.16015992522625;1;-83;160;1;Pascucci et al. (2024);Experiment 1;Orientation;1
1;148;154;6;1.30155462133916;1;-43;161;1;Pascucci et al. (2024);Experiment 1;Orientation;1
1;173;151.5;-21.5;0.925255094964086;1;-25;162;1;Pascucci et al. (2024);Experiment 1;Orientation;1
1;149;NaN;NaN;2.00872823956888;1;24;163;1;Pascucci et al. (2024);Experiment 1;Orientation;1
1;70;48;-22;1.15178767053385;1;79;164;1;Pascucci et al. (2024);Experiment 1;Orientation;1
1;12;27;15;0.917374802605991;1;58;165;1;Pascucci et al. (2024);Experiment 1;Orientation;1
1;23;33.5;10.5;1.10910703003901;1;-11;166;1;Pascucci et al. (2024);Experiment 1;Orientation;1
1;153;147.5;-5.5;1.32389956425322;1;50;167;1;Pascucci et al. (2024);Experiment 1;Orientation;1
1;153;144;-9;2.58670187476582;1;0;168;1;Pascucci et al. (2024);Experiment 1;Orientation;1
1;89;NaN;NaN;2.00871284436289;1;64;169;1;Pascucci et al. (2024);Experiment 1;Orientation;1
1;170;149;-21;2.0824309027339;1;-81;170;1;Pascucci et al. (2024);Experiment 1;Orientation;1
1;117;137.5;20.5;1.03527778407533;1;53;171;1;Pascucci et al. (2024);Experiment 1;Orientation;1
1;23;36;13;1.78178375673087;1;-86;172;1;Pascucci et al. (2024);Experiment 1;Orientation;1
1;116;149.5;33.5;0.978208784818889;1;87;173;1;Pascucci et al. (2024);Experiment 1;Orientation;1
1;161;146;-15;0.95882006341435;1;-45;174;1;Pascucci et al. (2024);Experiment 1;Orientation;1
1;31;NaN;NaN;2.00873337130361;1;-50;175;1;Pascucci et al. (2024);Experiment 1;Orientation;1
1;78;65;-13;1.19163969866349;1;-47;176;1;Pascucci et al. (2024);Experiment 1;Orientation;1
1;178;NaN;NaN;2.00853289152019;1;80;177;1;Pascucci et al. (2024);Experiment 1;Orientation;1
1;15;56;41;1.0794510752421;1;-17;178;1;Pascucci et al. (2024);Experiment 1;Orientation;1
1;133;NaN;NaN;2.00869779127333;1;62;179;1;Pascucci et al. (2024);Experiment 1;Orientation;1
1;71;69.5;-1.5;1.7795370831218;1;62;180;1;Pascucci et al. (2024);Experiment 1;Orientation;1
1;39;NaN;NaN;2.0087200287926;1;32;181;1;Pascucci et al. (2024);Experiment 1;Orientation;1
1;27;48;21;1.17950759275027;1;12;182;1;Pascucci et al. (2024);Experiment 1;Orientation;1
1;108;137;29;3.71229048477744;1;-81;183;1;Pascucci et al. (2024);Experiment 1;Orientation;1
1;129;134.5;5.5;1.83161461474265;1;-21;184;1;Pascucci et al. (2024);Experiment 1;Orientation;1
1;1;NaN;NaN;2.008742950542;1;-52;185;1;Pascucci et al. (2024);Experiment 1;Orientation;1
1;33;33;0;2.04543622468464;1;-32;186;1;Pascucci et al. (2024);Experiment 1;Orientation;1
1;108;NaN;NaN;2.00874329265753;1;-75;187;1;Pascucci et al. (2024);Experiment 1;Orientation;1
1;172;168;-4;0.923079581413731;1;-64;188;1;Pascucci et al. (2024);Experiment 1;Orientation;1
1;140;NaN;NaN;2.00871523917249;1;32;189;1;Pascucci et al. (2024);Experiment 1;Orientation;1
1;101;121;20;1.6213838508811;1;39;190;1;Pascucci et al. (2024);Experiment 1;Orientation;1
1;93;108.5;15.5;1.00868752780389;1;8;191;1;Pascucci et al. (2024);Experiment 1;Orientation;1
1;55;80;25;1.42074737888743;1;38;192;1;Pascucci et al. (2024);Experiment 1;Orientation;1
1;90;NaN;NaN;2.00869676492675;1;-35;193;1;Pascucci et al. (2024);Experiment 1;Orientation;1
1;143;133.5;-9.5;1.09849699674396;1;-53;194;1;Pascucci et al. (2024);Experiment 1;Orientation;1
1;68;NaN;NaN;2.00868615934087;1;75;195;1;Pascucci et al. (2024);Experiment 1;Orientation;1
1;104;117;13;1.52566809700147;1;-36;196;1;Pascucci et al. (2024);Experiment 1;Orientation;1
1;26;NaN;NaN;2.00870018608293;1;78;197;1;Pascucci et al. (2024);Experiment 1;Orientation;1
1;146;147.5;1.5;1.10400916442995;1;60;198;1;Pascucci et al. (2024);Experiment 1;Orientation;1
1;142;NaN;NaN;2.00869060684454;1;4;199;1;Pascucci et al. (2024);Experiment 1;Orientation;1
1;129;126;-3;1.0751708660855;1;13;200;1;Pascucci et al. (2024);Experiment 1;Orientation;1
1;98;106.5;8.5;0.754858226791839;2;NaN;201;1;Pascucci et al. (2024);Experiment 1;Orientation;1
1;36;58.5;22.5;1.14454816051602;2;62;202;1;Pascucci et al. (2024);Experiment 1;Orientation;1
1;34;38.5;4.5;0.958735902649096;2;2;203;1;Pascucci et al. (2024);Experiment 1;Orientation;1
1;150;156;6;0.885008265039687;2;64;204;1;Pascucci et al. (2024);Experiment 1;Orientation;1
1;90;NaN;NaN;2.0086882117248;2;60;205;1;Pascucci et al. (2024);Experiment 1;Orientation;1
1;50;74;24;1.78415838129149;2;40;206;1;Pascucci et al. (2024);Experiment 1;Orientation;1
1;51;NaN;NaN;2.00869368557505;2;-1;207;1;Pascucci et al. (2024);Experiment 1;Orientation;1
1;160;147.5;-12.5;1.16789002849509;2;71;208;1;Pascucci et al. (2024);Experiment 1;Orientation;1
1;0;NaN;NaN;2.00868136941062;2;-20;209;1;Pascucci et al. (2024);Experiment 1;Orientation;1
1;122;127;5;1.01662563739956;2;58;210;1;Pascucci et al. (2024);Experiment 1;Orientation;1
1;154;NaN;NaN;2.00869505403716;2;-32;211;1;Pascucci et al. (2024);Experiment 1;Orientation;1
1;39;24;-15;1.10311008413737;2;-65;212;1;Pascucci et al. (2024);Experiment 1;Orientation;1
1;54;NaN;NaN;2.00874021330674;2;-15;213;1;Pascucci et al. (2024);Experiment 1;Orientation;1
1;109;102.5;-6.5;1.71427441324158;2;-55;214;1;Pascucci et al. (2024);Experiment 1;Orientation;1
1;89;NaN;NaN;2.00872276540576;2;20;215;1;Pascucci et al. (2024);Experiment 1;Orientation;1
1;12;13;1;4.35699104430569;2;77;216;1;Pascucci et al. (2024);Experiment 1;Orientation;1
1;9;22;13;2.71447968264511;2;3;217;1;Pascucci et al. (2024);Experiment 1;Orientation;1
1;90;108.5;18.5;1.68948710655422;2;-81;218;1;Pascucci et al. (2024);Experiment 1;Orientation;1
1;71;NaN;NaN;2.00874602927252;2;19;219;1;Pascucci et al. (2024);Experiment 1;Orientation;1
1;133;131.5;-1.5;2.19768590860258;2;-62;220;1;Pascucci et al. (2024);Experiment 1;Orientation;1
1;58;74;16;2.5140758493053;2;75;221;1;Pascucci et al. (2024);Experiment 1;Orientation;1
1;36;40;4;2.36855147493407;2;22;222;1;Pascucci et al. (2024);Experiment 1;Orientation;1
1;84;NaN;NaN;2.00871113347421;2;-48;223;1;Pascucci et al. (2024);Experiment 1;Orientation;1
1;108;109;1;0.880904245454076;2;-24;224;1;Pascucci et al. (2024);Experiment 1;Orientation;1
1;13;42;29;0.761961916578002;2;-85;225;1;Pascucci et al. (2024);Experiment 1;Orientation;1
1;20;50;30;1.94348267547139;2;-7;226;1;Pascucci et al. (2024);Experiment 1;Orientation;1
1;28;35.5;7.5;1.95747418005521;2;-8;227;1;Pascucci et al. (2024);Experiment 1;Orientation;1
1;63;71;8;1.21069314640044;2;-35;228;1;Pascucci et al. (2024);Experiment 1;Orientation;1
1;37;NaN;NaN;2.00873234464598;2;26;229;1;Pascucci et al. (2024);Experiment 1;Orientation;1
1;55;56;1;1.45773658277358;2;-18;230;1;Pascucci et al. (2024);Experiment 1;Orientation;1
1;118;120.5;2.5;1.76309979329744;2;-63;231;1;Pascucci et al. (2024);Experiment 1;Orientation;1
1;155;110;-45;2.79237189431296;2;-37;232;1;Pascucci et al. (2024);Experiment 1;Orientation;1
1;159;NaN;NaN;2.00868547479877;2;-4;233;1;Pascucci et al. (2024);Experiment 1;Orientation;1
1;153;137.5;-15.5;3.09591778639333;2;6;234;1;Pascucci et al. (2024);Experiment 1;Orientation;1
1;161;142.5;-18.5;0.919657055934294;2;-8;235;1;Pascucci et al. (2024);Experiment 1;Orientation;1
1;71;74.5;3.5;1.70272150915844;2;90;236;1;Pascucci et al. (2024);Experiment 1;Orientation;1
1;117;NaN;NaN;2.00871866001944;2;-46;237;1;Pascucci et al. (2024);Experiment 1;Orientation;1
1;22;28;6;2.2098792532197;2;-85;238;1;Pascucci et al. (2024);Experiment 1;Orientation;1
1;67;NaN;NaN;2.00872823925965;2;-45;239;1;Pascucci et al. (2024);Experiment 1;Orientation;1
1;75;79.5;4.5;1.5368624635521;2;-8;240;1;Pascucci et al. (2024);Experiment 1;Orientation;1
1;37;NaN;NaN;2.00870873866552;2;38;241;1;Pascucci et al. (2024);Experiment 1;Orientation;1
1;25;42;17;1.56233879120009;2;12;242;1;Pascucci et al. (2024);Experiment 1;Orientation;1
1;5;28.5;23.5;1.83214797276378;2;20;243;1;Pascucci et al. (2024);Experiment 1;Orientation;1
1;86;82;-4;0.898387040457237;2;-81;244;1;Pascucci et al. (2024);Experiment 1;Orientation;1
1;60;75;15;1.25831222660236;2;26;245;1;Pascucci et al. (2024);Experiment 1;Orientation;1
1;64;57.5;-6.5;1.54832162794082;2;-4;246;1;Pascucci et al. (2024);Experiment 1;Orientation;1
1;164;NaN;NaN;2.00868307999008;2;80;247;1;Pascucci et al. (2024);Experiment 1;Orientation;1
1;56;64.5;8.5;1.78931132752223;2;-72;248;1;Pascucci et al. (2024);Experiment 1;Orientation;1
1;4;NaN;NaN;2.00868136941062;2;52;249;1;Pascucci et al. (2024);Experiment 1;Orientation;1
1;155;159.5;4.5;1.30918893222042;2;29;250;1;Pascucci et al. (2024);Experiment 1;Orientation;1
1;51;64;13;1.15498918866979;2;NaN;251;1;Pascucci et al. (2024);Experiment 1;Orientation;1
1;166;160;-6;1.89754064628869;2;65;252;1;Pascucci et al. (2024);Experiment 1;Orientation;1
1;109;131;22;0.665403873917967;2;57;253;1;Pascucci et al. (2024);Experiment 1;Orientation;1
1;115;120.5;5.5;0.970060615580223;2;-6;254;1;Pascucci et al. (2024);Experiment 1;Orientation;1
1;141;132;-9;1.13570002292545;2;-26;255;1;Pascucci et al. (2024);Experiment 1;Orientation;1
1;134;133.5;-0.5;1.27771634321107;2;7;256;1;Pascucci et al. (2024);Experiment 1;Orientation;1
1;157;NaN;NaN;2.00870463327738;2;-23;257;1;Pascucci et al. (2024);Experiment 1;Orientation;1
1;87;99;12;1.97791730195604;2;70;258;1;Pascucci et al. (2024);Experiment 1;Orientation;1
1;121;114;-7;1.08713499289479;2;-34;259;1;Pascucci et al. (2024);Experiment 1;Orientation;1
1;20;29;9;1.98321735792706;2;-79;260;1;Pascucci et al. (2024);Experiment 1;Orientation;1
1;25;NaN;NaN;2.00871147558973;2;-5;261;1;Pascucci et al. (2024);Experiment 1;Orientation;1
1;89;95;6;2.38327065954945;2;-64;262;1;Pascucci et al. (2024);Experiment 1;Orientation;1
1;92;101.5;9.5;2.35528525557129;2;-3;263;1;Pascucci et al. (2024);Experiment 1;Orientation;1
1;4;9;5;1.34475185618794;2;88;264;1;Pascucci et al. (2024);Experiment 1;Orientation;1
1;114;NaN;NaN;2.00871900213497;2;70;265;1;Pascucci et al. (2024);Experiment 1;Orientation;1
1;179;3;4;1.09822227755103;2;-65;266;1;Pascucci et al. (2024);Experiment 1;Orientation;1
1;6;NaN;NaN;2.00872379175416;2;-7;267;1;Pascucci et al. (2024);Experiment 1;Orientation;1
1;139;155;16;2.26186954534751;2;47;268;1;Pascucci et al. (2024);Experiment 1;Orientation;1
1;31;NaN;NaN;2.00870908078105;2;-72;269;1;Pascucci et al. (2024);Experiment 1;Orientation;1
1;146;138.5;-7.5;1.06676097835953;2;65;270;1;Pascucci et al. (2024);Experiment 1;Orientation;1
1;95;NaN;NaN;2.00874363446383;2;51;271;1;Pascucci et al. (2024);Experiment 1;Orientation;1
1;85;86;1;3.79943692502638;2;10;272;1;Pascucci et al. (2024);Experiment 1;Orientation;1
1;103;NaN;NaN;2.00868958018691;2;-18;273;1;Pascucci et al. (2024);Experiment 1;Orientation;1
1;3;14.5;11.5;2.59773407848843;2;-80;274;1;Pascucci et al. (2024);Experiment 1;Orientation;1
1;176;169.5;-6.5;1.27425515897266;2;7;275;1;Pascucci et al. (2024);Experiment 1;Orientation;1
1;158;163;5;1.41054412081394;2;18;276;1;Pascucci et al. (2024);Experiment 1;Orientation;1
1;103;NaN;NaN;2.00873610791859;2;55;277;1;Pascucci et al. (2024);Experiment 1;Orientation;1
1;36;70;34;0.761499034073495;2;67;278;1;Pascucci et al. (2024);Experiment 1;Orientation;1
1;25;NaN;NaN;2.00872584444733;2;11;279;1;Pascucci et al. (2024);Experiment 1;Orientation;1
1;14;27;13;1.8024047784711;2;11;280;1;Pascucci et al. (2024);Experiment 1;Orientation;1
1;157;NaN;NaN;2.00869265922847;2;37;281;1;Pascucci et al. (2024);Experiment 1;Orientation;1
1;158;150;-8;1.91341891879529;2;-1;282;1;Pascucci et al. (2024);Experiment 1;Orientation;1
1;36;48;12;1.76922537438077;2;-58;283;1;Pascucci et al. (2024);Experiment 1;Orientation;1
1;45;65;20;1.5739775663169;2;-9;284;1;Pascucci et al. (2024);Experiment 1;Orientation;1
1;76;77.5;1.5;1.41872205380605;2;-31;285;1;Pascucci et al. (2024);Experiment 1;Orientation;1
1;47;59;12;1.35783128039293;2;29;286;1;Pascucci et al. (2024);Experiment 1;Orientation;1
1;7;18.5;11.5;2.31503774172597;2;40;287;1;Pascucci et al. (2024);Experiment 1;Orientation;1
1;102;138.5;36.5;1.64242772759098;2;85;288;1;Pascucci et al. (2024);Experiment 1;Orientation;1
1;90;NaN;NaN;2.00869163288189;2;12;289;1;Pascucci et al. (2024);Experiment 1;Orientation;1
1;179;167;-12;1.94433420137648;2;-89;290;1;Pascucci et al. (2024);Experiment 1;Orientation;1
1;86;NaN;NaN;2.00879392546631;2;-87;291;1;Pascucci et al. (2024);Experiment 1;Orientation;1
1;82;88;6;1.29769008241237;2;4;292;1;Pascucci et al. (2024);Experiment 1;Orientation;1
1;47;NaN;NaN;2.00871113347421;2;35;293;1;Pascucci et al. (2024);Experiment 1;Orientation;1
1;103;111;8;2.25273710963302;2;-56;294;1;Pascucci et al. (2024);Experiment 1;Orientation;1
1;40;NaN;NaN;2.00867555344485;2;63;295;1;Pascucci et al. (2024);Experiment 1;Orientation;1
1;99;107;8;1.02575362560856;2;-59;296;1;Pascucci et al. (2024);Experiment 1;Orientation;1
1;173;NaN;NaN;2.00868410633666;2;-74;297;1;Pascucci et al. (2024);Experiment 1;Orientation;1
1;61;79;18;3.31993033793333;2;-68;298;1;Pascucci et al. (2024);Experiment 1;Orientation;1
1;52;75;23;1.34296053853541;2;9;299;1;Pascucci et al. (2024);Experiment 1;Orientation;1
1;87;87;0;2.17294512964509;2;-35;300;1;Pascucci et al. (2024);Experiment 1;Orientation;1
1;137;124;-13;1.12560761064015;2;NaN;301;1;Pascucci et al. (2024);Experiment 1;Orientation;1
1;126;116;-10;0.651938885350319;2;11;302;1;Pascucci et al. (2024);Experiment 1;Orientation;1
1;20;NaN;NaN;2.00872310752311;2;-74;303;1;Pascucci et al. (2024);Experiment 1;Orientation;1
1;103;115;12;1.3930951952625;2;-83;304;1;Pascucci et al. (2024);Experiment 1;Orientation;1
1;109;114;5;1.58938166650478;2;-6;305;1;Pascucci et al. (2024);Experiment 1;Orientation;1
1;7;172;-15;1.97759502899498;2;-78;306;1;Pascucci et al. (2024);Experiment 1;Orientation;1
1;97;119.5;22.5;3.31032099297408;2;-90;307;1;Pascucci et al. (2024);Experiment 1;Orientation;1
1;3;11.5;8.5;1.32574048836614;2;-86;308;1;Pascucci et al. (2024);Experiment 1;Orientation;1
1;61;NaN;NaN;2.00870565962396;2;-58;309;1;Pascucci et al. (2024);Experiment 1;Orientation;1
1;88;75.5;-12.5;2.35164240790982;2;-27;310;1;Pascucci et al. (2024);Experiment 1;Orientation;1
1;148;151;3;0.837227022011575;2;-60;311;1;Pascucci et al. (2024);Experiment 1;Orientation;1
1;67;43;-24;0.551827287217748;2;81;312;1;Pascucci et al. (2024);Experiment 1;Orientation;1
1;56;NaN;NaN;2.00871010712763;2;11;313;1;Pascucci et al. (2024);Experiment 1;Orientation;1
1;147;125;-22;1.29707666901413;2;89;314;1;Pascucci et al. (2024);Experiment 1;Orientation;1
1;60;NaN;NaN;2.00869026441978;2;87;315;1;Pascucci et al. (2024);Experiment 1;Orientation;1
1;46;42;-4;1.98852186140175;2;14;316;1;Pascucci et al. (2024);Experiment 1;Orientation;1
1;50;NaN;NaN;2.00869608038556;2;-4;317;1;Pascucci et al. (2024);Experiment 1;Orientation;1
1;153;132;-21;3.36425484422398;2;77;318;1;Pascucci et al. (2024);Experiment 1;Orientation;1
1;26;NaN;NaN;2.00868615903164;2;-53;319;1;Pascucci et al. (2024);Experiment 1;Orientation;1
1;164;152;-12;0.644793115337961;2;42;320;1;Pascucci et al. (2024);Experiment 1;Orientation;1
1;167;NaN;NaN;2.00868752749375;2;-3;321;1;Pascucci et al. (2024);Experiment 1;Orientation;1
1;17;27;10;2.2023923938832;2;-30;322;1;Pascucci et al. (2024);Experiment 1;Orientation;1
1;128;158;30;1.51010320213754;2;69;323;1;Pascucci et al. (2024);Experiment 1;Orientation;1
1;1;157;-24;1.42152911288395;2;-53;324;1;Pascucci et al. (2024);Experiment 1;Orientation;1
1;50;NaN;NaN;2.00870189635134;2;-49;325;1;Pascucci et al. (2024);Experiment 1;Orientation;1
1;30;28.5;-1.5;1.42802623158605;2;20;326;1;Pascucci et al. (2024);Experiment 1;Orientation;1
1;141;NaN;NaN;2.0086871853764;2;69;327;1;Pascucci et al. (2024);Experiment 1;Orientation;1
1;156;149.5;-6.5;1.80212082246544;2;-15;328;1;Pascucci et al. (2024);Experiment 1;Orientation;1
1;164;159.5;-4.5;1.07000115587653;2;-8;329;1;Pascucci et al. (2024);Experiment 1;Orientation;1
1;76;76.5;0.5;2.61510329108933;2;88;330;1;Pascucci et al. (2024);Experiment 1;Orientation;1
1;153;140;-13;2.76229821628112;2;-77;331;1;Pascucci et al. (2024);Experiment 1;Orientation;1
1;5;175;-10;1.84755754680191;2;-32;332;1;Pascucci et al. (2024);Experiment 1;Orientation;1
1;85;NaN;NaN;2.00869744884767;2;-80;333;1;Pascucci et al. (2024);Experiment 1;Orientation;1
1;82;78.5;-3.5;1.90109967560966;2;3;334;1;Pascucci et al. (2024);Experiment 1;Orientation;1
1;173;NaN;NaN;2.00867965883299;2;89;335;1;Pascucci et al. (2024);Experiment 1;Orientation;1
1;157;142.5;-14.5;1.33619896441996;2;16;336;1;Pascucci et al. (2024);Experiment 1;Orientation;1
1;106;118.5;12.5;2.45440540249001;2;51;337;1;Pascucci et al. (2024);Experiment 1;Orientation;1
1;165;130;-35;2.70406294470376;2;-59;338;1;Pascucci et al. (2024);Experiment 1;Orientation;1
1;66;NaN;NaN;2.0086820536435;2;-81;339;1;Pascucci et al. (2024);Experiment 1;Orientation;1
1;5;171.5;-13.5;0.971091410094232;2;61;340;1;Pascucci et al. (2024);Experiment 1;Orientation;1
1;168;NaN;NaN;2.00868034306404;2;17;341;1;Pascucci et al. (2024);Experiment 1;Orientation;1
1;105;125.5;20.5;1.38761689702915;2;63;342;1;Pascucci et al. (2024);Experiment 1;Orientation;1
1;41;NaN;NaN;2.00868650114717;2;64;343;1;Pascucci et al. (2024);Experiment 1;Orientation;1
1;28;28.5;0.5;2.12346083480588;2;13;344;1;Pascucci et al. (2024);Experiment 1;Orientation;1
1;17;17;0;1.37913482320619;2;11;345;1;Pascucci et al. (2024);Experiment 1;Orientation;1
1;146;160.5;14.5;1.91935017817923;2;51;346;1;Pascucci et al. (2024);Experiment 1;Orientation;1
1;4;NaN;NaN;2.00872037059708;2;-38;347;1;Pascucci et al. (2024);Experiment 1;Orientation;1
1;144;153.5;9.5;0.90575894892936;2;40;348;1;Pascucci et al. (2024);Experiment 1;Orientation;1
1;119;132.5;13.5;2.47390941687445;2;25;349;1;Pascucci et al. (2024);Experiment 1;Orientation;1
1;92;108;16;1.18630987831966;2;27;350;1;Pascucci et al. (2024);Experiment 1;Orientation;1
1;20;50;30;0.796884057892385;2;NaN;351;1;Pascucci et al. (2024);Experiment 1;Orientation;1
1;6;7;1;1.48846233327458;2;14;352;1;Pascucci et al. (2024);Experiment 1;Orientation;1
1;1;NaN;NaN;2.00873166041492;2;5;353;1;Pascucci et al. (2024);Experiment 1;Orientation;1
1;103;107;4;1.14826251035265;2;78;354;1;Pascucci et al. (2024);Experiment 1;Orientation;1
1;1;172.5;-8.5;1.57855062648741;2;-78;355;1;Pascucci et al. (2024);Experiment 1;Orientation;1
1;135;142.5;7.5;0.823206779710745;2;46;356;1;Pascucci et al. (2024);Experiment 1;Orientation;1
1;55;NaN;NaN;2.00868855384033;2;80;357;1;Pascucci et al. (2024);Experiment 1;Orientation;1
1;165;129;-36;1.05377460961608;2;70;358;1;Pascucci et al. (2024);Experiment 1;Orientation;1
1;179;NaN;NaN;2.00875150312277;2;-14;359;1;Pascucci et al. (2024);Experiment 1;Orientation;1
1;7;142.5;-44.5;1.23502886040296;2;-8;360;1;Pascucci et al. (2024);Experiment 1;Orientation;1
1;51;NaN;NaN;2.0087097650121;2;-44;361;1;Pascucci et al. (2024);Experiment 1;Orientation;1
1;121;116.5;-4.5;1.83288454780268;2;-70;362;1;Pascucci et al. (2024);Experiment 1;Orientation;1
1;66;117.5;51.5;2.79559975566372;2;55;363;1;Pascucci et al. (2024);Experiment 1;Orientation;1
1;15;43.5;28.5;1.35123768507037;2;51;364;1;Pascucci et al. (2024);Experiment 1;Orientation;1
1;169;36.5;47.5;2.27736054291381;2;26;365;1;Pascucci et al. (2024);Experiment 1;Orientation;1
1;143;45.5;82.5;1.86162534317918;2;26;366;1;Pascucci et al. (2024);Experiment 1;Orientation;1
1;4;140;-44;3.47084679739055;2;-41;367;1;Pascucci et al. (2024);Experiment 1;Orientation;1
1;68;61;-7;2.21655427207224;2;-64;368;1;Pascucci et al. (2024);Experiment 1;Orientation;1
1;171;NaN;NaN;2.00868376422113;2;77;369;1;Pascucci et al. (2024);Experiment 1;Orientation;1
1;163;152;-11;1.22259911385663;2;8;370;1;Pascucci et al. (2024);Experiment 1;Orientation;1
1;96;NaN;NaN;2.00885311147795;2;67;371;1;Pascucci et al. (2024);Experiment 1;Orientation;1
1;147;142.5;-4.5;0.917172954050329;2;-51;372;1;Pascucci et al. (2024);Experiment 1;Orientation;1
1;171;164.5;-6.5;1.09173679078231;2;-24;373;1;Pascucci et al. (2024);Experiment 1;Orientation;1
1;35;38.5;3.5;0.955929527803164;2;-44;374;1;Pascucci et al. (2024);Experiment 1;Orientation;1
1;28;NaN;NaN;2.00868718537822;2;7;375;1;Pascucci et al. (2024);Experiment 1;Orientation;1
1;78;65.5;-12.5;2.9895170758864;2;-50;376;1;Pascucci et al. (2024);Experiment 1;Orientation;1
1;121;NaN;NaN;2.00872618656467;2;-43;377;1;Pascucci et al. (2024);Experiment 1;Orientation;1
1;28;65.5;37.5;1.42128039479212;2;-87;378;1;Pascucci et al. (2024);Experiment 1;Orientation;1
1;170;146.5;-23.5;0.951800875887784;2;38;379;1;Pascucci et al. (2024);Experiment 1;Orientation;1
1;99;122;23;1.11009711247971;2;71;380;1;Pascucci et al. (2024);Experiment 1;Orientation;1
1;23;40;17;1.19704752075995;2;76;381;1;Pascucci et al. (2024);Experiment 1;Orientation;1
1;148;126.5;-21.5;1.21001302044715;2;55;382;1;Pascucci et al. (2024);Experiment 1;Orientation;1
1;71;70;-1;1.46124189993679;2;77;383;1;Pascucci et al. (2024);Experiment 1;Orientation;1
1;34;36;2;0.711010629744123;2;37;384;1;Pascucci et al. (2024);Experiment 1;Orientation;1
1;80;NaN;NaN;2.00870805443446;2;-46;385;1;Pascucci et al. (2024);Experiment 1;Orientation;1
1;55;63;8;1.3451521315219;2;25;386;1;Pascucci et al. (2024);Experiment 1;Orientation;1
1;176;158.5;-17.5;0.887422233212419;2;59;387;1;Pascucci et al. (2024);Experiment 1;Orientation;1
1;171;157;-14;1.15198164980939;2;5;388;1;Pascucci et al. (2024);Experiment 1;Orientation;1
1;43;NaN;NaN;2.00869676461662;2;-52;389;1;Pascucci et al. (2024);Experiment 1;Orientation;1
1;5;169.5;-15.5;1.033151876989;2;38;390;1;Pascucci et al. (2024);Experiment 1;Orientation;1
1;75;NaN;NaN;2.00872516021627;2;-70;391;1;Pascucci et al. (2024);Experiment 1;Orientation;1
1;39;24.5;-14.5;1.19087472771571;2;36;392;1;Pascucci et al. (2024);Experiment 1;Orientation;1
1;163;NaN;NaN;2.00875697697484;2;56;393;1;Pascucci et al. (2024);Experiment 1;Orientation;1
1;177;157.5;-19.5;1.41433270975358;2;-14;394;1;Pascucci et al. (2024);Experiment 1;Orientation;1
1;136;NaN;NaN;2.00872447598704;2;41;395;1;Pascucci et al. (2024);Experiment 1;Orientation;1
1;158;148.5;-9.5;1.13324226394798;2;-22;396;1;Pascucci et al. (2024);Experiment 1;Orientation;1
1;91;NaN;NaN;2.00872687079573;2;67;397;1;Pascucci et al. (2024);Experiment 1;Orientation;1
1;13;111;-82;1.79942426674643;2;78;398;1;Pascucci et al. (2024);Experiment 1;Orientation;1
1;128;NaN;NaN;2.00873131829758;2;65;399;1;Pascucci et al. (2024);Experiment 1;Orientation;1
1;102;111.5;9.5;2.69517717438976;2;26;400;1;Pascucci et al. (2024);Experiment 1;Orientation;1
1;132;130.5;-1.5;0.976786952438488;3;NaN;401;1;Pascucci et al. (2024);Experiment 1;Orientation;1
1;139;116.5;-22.5;1.13405581567167;3;-7;402;1;Pascucci et al. (2024);Experiment 1;Orientation;1
1;53;63.5;10.5;1.77197837984204;3;86;403;1;Pascucci et al. (2024);Experiment 1;Orientation;1
1;71;71;0;0.865049237472704;3;-18;404;1;Pascucci et al. (2024);Experiment 1;Orientation;1
1;96;NaN;NaN;2.0087364506926;3;-25;405;1;Pascucci et al. (2024);Experiment 1;Orientation;1
1;162;141.5;-20.5;1.61409405051927;3;-66;406;1;Pascucci et al. (2024);Experiment 1;Orientation;1
1;99;127;28;1.92148155946597;3;63;407;1;Pascucci et al. (2024);Experiment 1;Orientation;1
1;91;114;23;1.49707099055377;3;8;408;1;Pascucci et al. (2024);Experiment 1;Orientation;1
1;76;NaN;NaN;2.00869094930749;3;15;409;1;Pascucci et al. (2024);Experiment 1;Orientation;1
1;171;159.5;-11.5;1.0278740591948;3;85;410;1;Pascucci et al. (2024);Experiment 1;Orientation;1
1;103;NaN;NaN;2.00869676527327;3;68;411;1;Pascucci et al. (2024);Experiment 1;Orientation;1
1;98;117;19;1.44215184617133;3;5;412;1;Pascucci et al. (2024);Experiment 1;Orientation;1
1;112;NaN;NaN;2.00870600239796;3;-14;413;1;Pascucci et al. (2024);Experiment 1;Orientation;1
1;15;41.5;26.5;2.82356087008884;3;-83;414;1;Pascucci et al. (2024);Experiment 1;Orientation;1
1;141;149;8;1.0750073351428;3;54;415;1;Pascucci et al. (2024);Experiment 1;Orientation;1
1;60;64.5;4.5;2.15536175329544;3;81;416;1;Pascucci et al. (2024);Experiment 1;Orientation;1
1;70;54.5;-15.5;3.21686149260131;3;-10;417;1;Pascucci et al. (2024);Experiment 1;Orientation;1
1;17;23;6;1.25981822044378;3;53;418;1;Pascucci et al. (2024);Experiment 1;Orientation;1
1;59;NaN;NaN;2.0087148974053;3;-42;419;1;Pascucci et al. (2024);Experiment 1;Orientation;1
1;16;19.5;3.5;1.93660307210848;3;43;420;1;Pascucci et al. (2024);Experiment 1;Orientation;1
1;68;71;3;0.895408582087839;3;-52;421;1;Pascucci et al. (2024);Experiment 1;Orientation;1
1;175;166;-9;1.00725543195404;3;73;422;1;Pascucci et al. (2024);Experiment 1;Orientation;1
1;101;NaN;NaN;2.00874397723601;3;74;423;1;Pascucci et al. (2024);Experiment 1;Orientation;1
1;51;55.5;4.5;1.4780633860064;3;50;424;1;Pascucci et al. (2024);Experiment 1;Orientation;1
1;120;NaN;NaN;2.00869265988695;3;-69;425;1;Pascucci et al. (2024);Experiment 1;Orientation;1
1;79;75;-4;1.60235264070252;3;41;426;1;Pascucci et al. (2024);Experiment 1;Orientation;1
1;119;130;11;1.35800541792742;3;-40;427;1;Pascucci et al. (2024);Experiment 1;Orientation;1
1;2;9.5;7.5;0.779576084654764;3;-63;428;1;Pascucci et al. (2024);Experiment 1;Orientation;1
1;141;135.5;-5.5;1.00029543075107;3;41;429;1;Pascucci et al. (2024);Experiment 1;Orientation;1
1;7;17;10;2.49211681352608;3;-46;430;1;Pascucci et al. (2024);Experiment 1;Orientation;1
1;48;NaN;NaN;2.00871044990163;3;-41;431;1;Pascucci et al. (2024);Experiment 1;Orientation;1
1;157;148.5;-8.5;2.47153958228409;3;71;432;1;Pascucci et al. (2024);Experiment 1;Orientation;1
1;112;NaN;NaN;2.00871113413268;3;45;433;1;Pascucci et al. (2024);Experiment 1;Orientation;1
1;139;155;16;1.25992975015288;3;-27;434;1;Pascucci et al. (2024);Experiment 1;Orientation;1
1;3;20;17;0.805306604246653;3;-44;435;1;Pascucci et al. (2024);Experiment 1;Orientation;1
1;105;134;29;0.761168208880918;3;78;436;1;Pascucci et al. (2024);Experiment 1;Orientation;1
1;92;NaN;NaN;2.00872139760395;3;13;437;1;Pascucci et al. (2024);Experiment 1;Orientation;1
1;37;52;15;1.59408336282468;3;55;438;1;Pascucci et al. (2024);Experiment 1;Orientation;1
1;140;NaN;NaN;2.00873439799943;3;77;439;1;Pascucci et al. (2024);Experiment 1;Orientation;1
1;79;73.5;-5.5;1.69744198078661;3;61;440;1;Pascucci et al. (2024);Experiment 1;Orientation;1
1;174;NaN;NaN;2.00870326547192;3;85;441;1;Pascucci et al. (2024);Experiment 1;Orientation;1
1;118;100.5;-17.5;1.22891012229229;3;56;442;1;Pascucci et al. (2024);Experiment 1;Orientation;1
1;156;NaN;NaN;2.00867144871518;3;-38;443;1;Pascucci et al. (2024);Experiment 1;Orientation;1
1;88;99;11;1.62762096202096;3;68;444;1;Pascucci et al. (2024);Experiment 1;Orientation;1
1;76;NaN;NaN;2.00869437046458;3;12;445;1;Pascucci et al. (2024);Experiment 1;Orientation;1
1;67;72;5;2.12120560896437;3;9;446;1;Pascucci et al. (2024);Experiment 1;Orientation;1
1;100;106;6;2.12816766286232;3;-33;447;1;Pascucci et al. (2024);Experiment 1;Orientation;1
1;102;98;-4;1.01520893706765;3;-2;448;1;Pascucci et al. (2024);Experiment 1;Orientation;1
1;21;NaN;NaN;2.00872379241264;3;81;449;1;Pascucci et al. (2024);Experiment 1;Orientation;1
1;68;74;6;1.55744790623066;3;-47;450;1;Pascucci et al. (2024);Experiment 1;Orientation;1
1;149;134;-15;1.18478746424444;3;NaN;451;1;Pascucci et al. (2024);Experiment 1;Orientation;1
1;75;71;-4;0.981548860459952;3;74;452;1;Pascucci et al. (2024);Experiment 1;Orientation;1
1;7;NaN;NaN;2.0086943704664;3;68;453;1;Pascucci et al. (2024);Experiment 1;Orientation;1
1;118;128.5;10.5;0.917378908341561;3;69;454;1;Pascucci et al. (2024);Experiment 1;Orientation;1
1;41;29;-12;2.77259658285948;3;77;455;1;Pascucci et al. (2024);Experiment 1;Orientation;1
1;14;34;20;2.39393611623927;3;27;456;1;Pascucci et al. (2024);Experiment 1;Orientation;1
1;95;NaN;NaN;2.00869505469564;3;-81;457;1;Pascucci et al. (2024);Experiment 1;Orientation;1
1;136;140;4;2.21675201558719;3;-41;458;1;Pascucci et al. (2024);Experiment 1;Orientation;1
1;63;NaN;NaN;2.00871763432951;3;73;459;1;Pascucci et al. (2024);Experiment 1;Orientation;1
1;81;82;1;2.47124296799666;3;-18;460;1;Pascucci et al. (2024);Experiment 1;Orientation;1
1;174;175;1;1.34406317799949;3;87;461;1;Pascucci et al. (2024);Experiment 1;Orientation;1
1;13;22.5;9.5;2.10220039922751;3;-19;462;1;Pascucci et al. (2024);Experiment 1;Orientation;1
1;10;NaN;NaN;2.00869129142484;3;3;463;1;Pascucci et al. (2024);Experiment 1;Orientation;1
1;157;174;17;1.26540017972548;3;33;464;1;Pascucci et al. (2024);Experiment 1;Orientation;1
1;112;NaN;NaN;2.00869094930931;3;45;465;1;Pascucci et al. (2024);Experiment 1;Orientation;1
1;48;60;12;0.789804658978028;3;64;466;1;Pascucci et al. (2024);Experiment 1;Orientation;1
1;158;39;61;4.76220995109725;3;70;467;1;Pascucci et al. (2024);Experiment 1;Orientation;1
1;91;100;9;1.78417480350254;3;67;468;1;Pascucci et al. (2024);Experiment 1;Orientation;1
1;123;NaN;NaN;2.00852228628173;3;-32;469;1;Pascucci et al. (2024);Experiment 1;Orientation;1
1;3;3;0;1.90310789525574;3;-60;470;1;Pascucci et al. (2024);Experiment 1;Orientation;1
1;77;78;1;1.71872397031257;3;-74;471;1;Pascucci et al. (2024);Experiment 1;Orientation;1
1;33;71;38;2.46977939715725;3;44;472;1;Pascucci et al. (2024);Experiment 1;Orientation;1
1;62;65.5;3.5;0.911049768435987;3;-29;473;1;Pascucci et al. (2024);Experiment 1;Orientation;1
1;37;37.5;0.5;1.23848970318613;3;25;474;1;Pascucci et al. (2024);Experiment 1;Orientation;1
1;125;NaN;NaN;2.00871284471214;3;-88;475;1;Pascucci et al. (2024);Experiment 1;Orientation;1
1;26;46;20;2.20403660245393;3;-81;476;1;Pascucci et al. (2024);Experiment 1;Orientation;1
1;40;NaN;NaN;2.00869881796825;3;-14;477;1;Pascucci et al. (2024);Experiment 1;Orientation;1
1;147;155;8;2.2431257126409;3;73;478;1;Pascucci et al. (2024);Experiment 1;Orientation;1
1;109;NaN;NaN;2.00870223912534;3;38;479;1;Pascucci et al. (2024);Experiment 1;Orientation;1
1;112;122;10;2.7044680103154;3;-3;480;1;Pascucci et al. (2024);Experiment 1;Orientation;1
1;157;NaN;NaN;2.00870873932399;3;-45;481;1;Pascucci et al. (2024);Experiment 1;Orientation;1
1;16;20;4;0.835497627955192;3;-39;482;1;Pascucci et al. (2024);Experiment 1;Orientation;1
1;98;121.5;23.5;1.82278939924981;3;-82;483;1;Pascucci et al. (2024);Experiment 1;Orientation;1
1;146;141;-5;1.28105812974172;3;-48;484;1;Pascucci et al. (2024);Experiment 1;Orientation;1
1;15;NaN;NaN;2.00869265988695;3;-49;485;1;Pascucci et al. (2024);Experiment 1;Orientation;1
1;52;43;-9;1.59735980460391;3;-37;486;1;Pascucci et al. (2024);Experiment 1;Orientation;1
1;31;NaN;NaN;2.00871318682584;3;21;487;1;Pascucci et al. (2024);Experiment 1;Orientation;1
1;13;22;9;1.24465086429882;3;18;488;1;Pascucci et al. (2024);Experiment 1;Orientation;1
1;142;NaN;NaN;2.00868444911066;3;51;489;1;Pascucci et al. (2024);Experiment 1;Orientation;1
1;11;15;4;1.22611880053591;3;-49;490;1;Pascucci et al. (2024);Experiment 1;Orientation;1
1;158;154.5;-3.5;1.50114182491961;3;33;491;1;Pascucci et al. (2024);Experiment 1;Orientation;1
1;72;67;-5;2.15679008621919;3;86;492;1;Pascucci et al. (2024);Experiment 1;Orientation;1
1;20;30;10;2.10637660521934;3;52;493;1;Pascucci et al. (2024);Experiment 1;Orientation;1
1;106;134.5;28.5;2.50653254154167;3;-86;494;1;Pascucci et al. (2024);Experiment 1;Orientation;1
1;136;NaN;NaN;2.00870292335821;3;-30;495;1;Pascucci et al. (2024);Experiment 1;Orientation;1
1;76;76.5;0.5;1.01319934961793;3;60;496;1;Pascucci et al. (2024);Experiment 1;Orientation;1
1;70;NaN;NaN;2.00868000160699;3;6;497;1;Pascucci et al. (2024);Experiment 1;Orientation;1
1;4;21;17;0.916095632461293;3;66;498;1;Pascucci et al. (2024);Experiment 1;Orientation;1
1;119;134.5;15.5;1.18712411427441;3;65;499;1;Pascucci et al. (2024);Experiment 1;Orientation;1
1;74;69;-5;1.0796713980817;3;45;500;1;Pascucci et al. (2024);Experiment 1;Orientation;1
1;45;57.5;12.5;1.17107204700733;3;NaN;501;1;Pascucci et al. (2024);Experiment 1;Orientation;1
1;155;156.5;1.5;0.927818910147835;3;70;502;1;Pascucci et al. (2024);Experiment 1;Orientation;1
1;53;NaN;NaN;2.0087258451058;3;-78;503;1;Pascucci et al. (2024);Experiment 1;Orientation;1
1;136;131.5;-4.5;2.13796893471226;3;-83;504;1;Pascucci et al. (2024);Experiment 1;Orientation;1
1;50;NaN;NaN;2.00870873932399;3;86;505;1;Pascucci et al. (2024);Experiment 1;Orientation;1
1;23;47;24;2.05168873103139;3;27;506;1;Pascucci et al. (2024);Experiment 1;Orientation;1
1;94;103.5;9.5;2.35719802494532;3;-71;507;1;Pascucci et al. (2024);Experiment 1;Orientation;1
1;90;96;6;2.89872573562934;3;4;508;1;Pascucci et al. (2024);Experiment 1;Orientation;1
1;126;NaN;NaN;2.00870737086007;3;-36;509;1;Pascucci et al. (2024);Experiment 1;Orientation;1
1;83;70.5;-12.5;1.19753845740706;3;43;510;1;Pascucci et al. (2024);Experiment 1;Orientation;1
1;67;62;-5;2.05775238917704;3;16;511;1;Pascucci et al. (2024);Experiment 1;Orientation;1
1;76;65.5;-10.5;1.17900502517841;3;-9;512;1;Pascucci et al. (2024);Experiment 1;Orientation;1
1;52;75;23;2.42400876792453;3;24;513;1;Pascucci et al. (2024);Experiment 1;Orientation;1
1;165;152;-13;2.13843386990993;3;67;514;1;Pascucci et al. (2024);Experiment 1;Orientation;1
1;51;NaN;NaN;2.00870360758927;3;-66;515;1;Pascucci et al. (2024);Experiment 1;Orientation;1
1;106;140;34;1.38014372297766;3;-55;516;1;Pascucci et al. (2024);Experiment 1;Orientation;1
1;76;NaN;NaN;2.00869984431483;3;30;517;1;Pascucci et al. (2024);Experiment 1;Orientation;1
1;4;174;-10;0.820766469289083;3;72;518;1;Pascucci et al. (2024);Experiment 1;Orientation;1
1;95;NaN;NaN;2.00854726072612;3;89;519;1;Pascucci et al. (2024);Experiment 1;Orientation;1
1;43;41.5;-1.5;1.04300104568938;3;52;520;1;Pascucci et al. (2024);Experiment 1;Orientation;1
1;125;NaN;NaN;2.00870223912534;3;-82;521;1;Pascucci et al. (2024);Experiment 1;Orientation;1
1;61;40.5;-20.5;1.9043826182442;3;64;522;1;Pascucci et al. (2024);Experiment 1;Orientation;1
1;92;NaN;NaN;2.00871044990163;3;-31;523;1;Pascucci et al. (2024);Experiment 1;Orientation;1
1;10;22.5;12.5;1.64380577017073;3;82;524;1;Pascucci et al. (2024);Experiment 1;Orientation;1
1;36;NaN;NaN;2.00869539681298;3;-26;525;1;Pascucci et al. (2024);Experiment 1;Orientation;1
1;104;122;18;2.39300521950099;3;-68;526;1;Pascucci et al. (2024);Experiment 1;Orientation;1
1;73;71.5;-1.5;2.70901301700178;3;31;527;1;Pascucci et al. (2024);Experiment 1;Orientation;1
1;43;41;-2;1.28409816959174;3;30;528;1;Pascucci et al. (2024);Experiment 1;Orientation;1
1;104;NaN;NaN;2.00872242395053;3;-61;529;1;Pascucci et al. (2024);Experiment 1;Orientation;1
1;8;11.5;3.5;1.18402694110773;3;-84;530;1;Pascucci et al. (2024);Experiment 1;Orientation;1
1;78;NaN;NaN;2.00870771297559;3;-70;531;1;Pascucci et al. (2024);Experiment 1;Orientation;1
1;147;38;71;1.59994551484124;3;-69;532;1;Pascucci et al. (2024);Experiment 1;Orientation;1
1;107;121;14;1.66790542435956;3;40;533;1;Pascucci et al. (2024);Experiment 1;Orientation;1
1;160;118;-42;1.10074914455254;3;-53;534;1;Pascucci et al. (2024);Experiment 1;Orientation;1
1;172;155.5;-16.5;1.10858633033604;3;-12;535;1;Pascucci et al. (2024);Experiment 1;Orientation;1
1;5;160.5;-24.5;1.10815286978141;3;-13;536;1;Pascucci et al. (2024);Experiment 1;Orientation;1
1;102;109.5;7.5;1.20346766409421;3;83;537;1;Pascucci et al. (2024);Experiment 1;Orientation;1
1;46;65.5;19.5;1.33543878405908;3;56;538;1;Pascucci et al. (2024);Experiment 1;Orientation;1
1;164;NaN;NaN;2.00870771297741;3;62;539;1;Pascucci et al. (2024);Experiment 1;Orientation;1
1;35;37;2;1.04115670010833;3;-51;540;1;Pascucci et al. (2024);Experiment 1;Orientation;1
1;39;37.5;-1.5;1.01144155929978;3;-4;541;1;Pascucci et al. (2024);Experiment 1;Orientation;1
1;41;64.5;23.5;1.02281553688772;3;-2;542;1;Pascucci et al. (2024);Experiment 1;Orientation;1
1;89;78.5;-10.5;1.34616342610207;3;-48;543;1;Pascucci et al. (2024);Experiment 1;Orientation;1
1;40;56.5;16.5;1.73610892023498;3;49;544;1;Pascucci et al. (2024);Experiment 1;Orientation;1
1;34;NaN;NaN;2.00870737086188;3;6;545;1;Pascucci et al. (2024);Experiment 1;Orientation;1
1;112;124.5;12.5;1.47398365663503;3;-78;546;1;Pascucci et al. (2024);Experiment 1;Orientation;1
1;1;NaN;NaN;2.00868102795357;3;-69;547;1;Pascucci et al. (2024);Experiment 1;Orientation;1
1;96;102;6;1.24602787987351;3;85;548;1;Pascucci et al. (2024);Experiment 1;Orientation;1
1;96;NaN;NaN;2.00869984431665;3;0;549;1;Pascucci et al. (2024);Experiment 1;Orientation;1
1;56;69.5;13.5;1.67548465492837;3;40;550;1;Pascucci et al. (2024);Experiment 1;Orientation;1
1;134;143;9;0.913378207689675;3;NaN;551;1;Pascucci et al. (2024);Experiment 1;Orientation;1
1;98;108.5;10.5;1.24094540947044;3;36;552;1;Pascucci et al. (2024);Experiment 1;Orientation;1
1;60;NaN;NaN;2.00870771297741;3;38;553;1;Pascucci et al. (2024);Experiment 1;Orientation;1
1;83;81.5;-1.5;1.27050180860715;3;-23;554;1;Pascucci et al. (2024);Experiment 1;Orientation;1
1;19;67;48;1.43946042219068;3;64;555;1;Pascucci et al. (2024);Experiment 1;Orientation;1
1;27;32.5;5.5;2.25812919537748;3;-8;556;1;Pascucci et al. (2024);Experiment 1;Orientation;1
1;29;33;4;1.26783330637591;3;-2;557;1;Pascucci et al. (2024);Experiment 1;Orientation;1
1;102;106;4;1.06056013248599;3;-73;558;1;Pascucci et al. (2024);Experiment 1;Orientation;1
1;113;NaN;NaN;2.00869744950614;3;-11;559;1;Pascucci et al. (2024);Experiment 1;Orientation;1
1;51;91;40;1.20149981475697;3;62;560;1;Pascucci et al. (2024);Experiment 1;Orientation;1
1;102;NaN;NaN;2.00867144871518;3;-51;561;1;Pascucci et al. (2024);Experiment 1;Orientation;1
1;178;175;-3;3.20041496596605;3;-76;562;1;Pascucci et al. (2024);Experiment 1;Orientation;1
1;74;NaN;NaN;2.00869163354037;3;-76;563;1;Pascucci et al. (2024);Experiment 1;Orientation;1
1;68;75.5;7.5;0.94330956560043;3;6;564;1;Pascucci et al. (2024);Experiment 1;Orientation;1
1;49;NaN;NaN;2.0086923177696;3;19;565;1;Pascucci et al. (2024);Experiment 1;Orientation;1
1;74;73;-1;0.985220445838422;3;-25;566;1;Pascucci et al. (2024);Experiment 1;Orientation;1
1;97;NaN;NaN;2.00870976567057;3;-23;567;1;Pascucci et al. (2024);Experiment 1;Orientation;1
1;61;58;-3;2.43354079474011;3;36;568;1;Pascucci et al. (2024);Experiment 1;Orientation;1
1;109;NaN;NaN;2.00870292335821;3;-48;569;1;Pascucci et al. (2024);Experiment 1;Orientation;1
1;60;74;14;2.88634593796996;3;49;570;1;Pascucci et al. (2024);Experiment 1;Orientation;1
1;133;138;5;2.31857316572496;3;-73;571;1;Pascucci et al. (2024);Experiment 1;Orientation;1
1;170;150;-20;1.90177227567801;3;-37;572;1;Pascucci et al. (2024);Experiment 1;Orientation;1
1;57;73.5;16.5;1.23736448474483;3;-67;573;1;Pascucci et al. (2024);Experiment 1;Orientation;1
1;86;70;-16;1.9999865002992;3;-29;574;1;Pascucci et al. (2024);Experiment 1;Orientation;1
1;10;NaN;NaN;2.00869573892851;3;76;575;1;Pascucci et al. (2024);Experiment 1;Orientation;1
1;68;59;-9;1.97544004304291;3;-58;576;1;Pascucci et al. (2024);Experiment 1;Orientation;1
1;105;NaN;NaN;2.00873029260947;3;-37;577;1;Pascucci et al. (2024);Experiment 1;Orientation;1
1;49;46;-3;2.11094077038069;3;56;578;1;Pascucci et al. (2024);Experiment 1;Orientation;1
1;86;NaN;NaN;2.00870463393403;3;-37;579;1;Pascucci et al. (2024);Experiment 1;Orientation;1
1;86;74.5;-11.5;0.985626195022633;3;0;580;1;Pascucci et al. (2024);Experiment 1;Orientation;1
1;0;NaN;NaN;2.00884729616882;3;86;581;1;Pascucci et al. (2024);Experiment 1;Orientation;1
1;149;146.5;-2.5;1.89000589141506;3;31;582;1;Pascucci et al. (2024);Experiment 1;Orientation;1
1;11;9.5;-1.5;1.20990285985863;3;-42;583;1;Pascucci et al. (2024);Experiment 1;Orientation;1
1;129;132.5;3.5;2.73336515255505;3;62;584;1;Pascucci et al. (2024);Experiment 1;Orientation;1
1;58;46.5;-11.5;1.44365407608166;3;71;585;1;Pascucci et al. (2024);Experiment 1;Orientation;1
1;123;131;8;1.0139393458121;3;-65;586;1;Pascucci et al. (2024);Experiment 1;Orientation;1
1;19;NaN;NaN;2.00869471258011;3;-76;587;1;Pascucci et al. (2024);Experiment 1;Orientation;1
1;166;139.5;-26.5;2.20456448693585;3;33;588;1;Pascucci et al. (2024);Experiment 1;Orientation;1
1;36;37;1;1.44025070938915;3;-50;589;1;Pascucci et al. (2024);Experiment 1;Orientation;1
1;79;57;-22;0.866617495705214;3;-43;590;1;Pascucci et al. (2024);Experiment 1;Orientation;1
1;6;NaN;NaN;2.00871831856239;3;73;591;1;Pascucci et al. (2024);Experiment 1;Orientation;1
1;144;143.5;-0.5;1.07095223809847;3;42;592;1;Pascucci et al. (2024);Experiment 1;Orientation;1
1;89;97;8;2.25609497560072;3;55;593;1;Pascucci et al. (2024);Experiment 1;Orientation;1
1;0;62;62;1.42590272027701;3;89;594;1;Pascucci et al. (2024);Experiment 1;Orientation;1
1;170;160;-10;1.18054933531675;3;10;595;1;Pascucci et al. (2024);Experiment 1;Orientation;1
1;136;143.5;7.5;1.11343239881171;3;34;596;1;Pascucci et al. (2024);Experiment 1;Orientation;1
1;128;NaN;NaN;2.00869916008378;3;8;597;1;Pascucci et al. (2024);Experiment 1;Orientation;1
1;57;46.5;-10.5;1.15632412467676;3;71;598;1;Pascucci et al. (2024);Experiment 1;Orientation;1
1;151;NaN;NaN;2.00886645464743;3;86;599;1;Pascucci et al. (2024);Experiment 1;Orientation;1
1;58;62;4;1.30169215218666;3;-87;600;1;Pascucci et al. (2024);Experiment 1;Orientation;1
1;153;147;-6;0.93991099179766;4;NaN;601;1;Pascucci et al. (2024);Experiment 1;Orientation;1
1;55;64;9;0.80225698842878;4;-82;602;1;Pascucci et al. (2024);Experiment 1;Orientation;1
1;172;151.5;-20.5;1.41465293394685;4;63;603;1;Pascucci et al. (2024);Experiment 1;Orientation;1
1;169;163;-6;1.07371003578919;4;3;604;1;Pascucci et al. (2024);Experiment 1;Orientation;1
1;102;NaN;NaN;2.00871250586533;4;67;605;1;Pascucci et al. (2024);Experiment 1;Orientation;1
1;87;101;14;1.95775813998807;4;15;606;1;Pascucci et al. (2024);Experiment 1;Orientation;1
1;49;NaN;NaN;2.00870600566668;4;38;607;1;Pascucci et al. (2024);Experiment 1;Orientation;1
1;134;145.5;11.5;1.25484249339934;4;-85;608;1;Pascucci et al. (2024);Experiment 1;Orientation;1
1;173;NaN;NaN;2.00871729548271;4;-39;609;1;Pascucci et al. (2024);Experiment 1;Orientation;1
1;53;73;20;1.30771783876298;4;-60;610;1;Pascucci et al. (2024);Experiment 1;Orientation;1
1;153;NaN;NaN;2.00867487314099;4;80;611;1;Pascucci et al. (2024);Experiment 1;Orientation;1
1;160;141;-19;1.3105526092113;4;-7;612;1;Pascucci et al. (2024);Experiment 1;Orientation;1
1;94;NaN;NaN;2.00869642642829;4;66;613;1;Pascucci et al. (2024);Experiment 1;Orientation;1
1;84;74;-10;1.58533786320368;4;10;614;1;Pascucci et al. (2024);Experiment 1;Orientation;1
1;2;NaN;NaN;2.00871011105482;4;82;615;1;Pascucci et al. (2024);Experiment 1;Orientation;1
1;177;174.5;-2.5;1.36917720842212;4;5;616;1;Pascucci et al. (2024);Experiment 1;Orientation;1
1;96;NaN;NaN;2.00869437373331;4;81;617;1;Pascucci et al. (2024);Experiment 1;Orientation;1
1;109;115.5;6.5;1.80155051956899;4;-13;618;1;Pascucci et al. (2024);Experiment 1;Orientation;1
1;62;71.5;9.5;3.26926814276703;4;47;619;1;Pascucci et al. (2024);Experiment 1;Orientation;1
1;163;111.5;-51.5;2.34239399891158;4;79;620;1;Pascucci et al. (2024);Experiment 1;Orientation;1
1;33;NaN;NaN;2.00872687472292;4;-50;621;1;Pascucci et al. (2024);Experiment 1;Orientation;1
1;44;58.5;14.5;1.24760264157521;4;-11;622;1;Pascucci et al. (2024);Experiment 1;Orientation;1
1;154;NaN;NaN;2.00869095257804;4;70;623;1;Pascucci et al. (2024);Experiment 1;Orientation;1
1;36;67;31;1.26117744927069;4;-62;624;1;Pascucci et al. (2024);Experiment 1;Orientation;1
1;130;143;13;1.37485803913296;4;86;625;1;Pascucci et al. (2024);Experiment 1;Orientation;1
1;178;169;-9;1.24341582999841;4;-48;626;1;Pascucci et al. (2024);Experiment 1;Orientation;1
1;105;NaN;NaN;2.00869095257622;4;73;627;1;Pascucci et al. (2024);Experiment 1;Orientation;1
1;61;66.5;5.5;1.60138343027575;4;44;628;1;Pascucci et al. (2024);Experiment 1;Orientation;1
1;16;21;5;2.04467399458736;4;45;629;1;Pascucci et al. (2024);Experiment 1;Orientation;1
1;45;56;11;1.38252656189252;4;-29;630;1;Pascucci et al. (2024);Experiment 1;Orientation;1
1;35;NaN;NaN;2.008716953369;4;10;631;1;Pascucci et al. (2024);Experiment 1;Orientation;1
1;2;7.5;5.5;1.98242981158;4;33;632;1;Pascucci et al. (2024);Experiment 1;Orientation;1
1;107;NaN;NaN;2.00869916335432;4;75;633;1;Pascucci et al. (2024);Experiment 1;Orientation;1
1;36;10.5;-25.5;1.05418515234851;4;71;634;1;Pascucci et al. (2024);Experiment 1;Orientation;1
1;80;82.5;2.5;2.35999687651383;4;-44;635;1;Pascucci et al. (2024);Experiment 1;Orientation;1
1;18;21;3;1.93324623641638;4;62;636;1;Pascucci et al. (2024);Experiment 1;Orientation;1
1;60;60.5;0.5;1.55606747276761;4;-42;637;1;Pascucci et al. (2024);Experiment 1;Orientation;1
1;54;73;19;2.21731172009459;4;6;638;1;Pascucci et al. (2024);Experiment 1;Orientation;1
1;80;NaN;NaN;2.00868513661044;4;-26;639;1;Pascucci et al. (2024);Experiment 1;Orientation;1
1;173;163;-10;1.77586276443617;4;87;640;1;Pascucci et al. (2024);Experiment 1;Orientation;1
1;67;62.5;-4.5;2.19648748133477;4;-74;641;1;Pascucci et al. (2024);Experiment 1;Orientation;1
1;26;16;-10;1.59241349950389;4;41;642;1;Pascucci et al. (2024);Experiment 1;Orientation;1
1;160;166.5;6.5;1.26074090967631;4;46;643;1;Pascucci et al. (2024);Experiment 1;Orientation;1
1;25;28.5;3.5;1.09403307509092;4;-45;644;1;Pascucci et al. (2024);Experiment 1;Orientation;1
1;56;NaN;NaN;2.00868924199858;4;-31;645;1;Pascucci et al. (2024);Experiment 1;Orientation;1
1;97;118.5;21.5;1.12982692713558;4;-41;646;1;Pascucci et al. (2024);Experiment 1;Orientation;1
1;173;168;-5;1.27257092745276;4;-76;647;1;Pascucci et al. (2024);Experiment 1;Orientation;1
1;16;18.5;2.5;1.99348767428819;4;-23;648;1;Pascucci et al. (2024);Experiment 1;Orientation;1
1;142;NaN;NaN;2.00868547872597;4;54;649;1;Pascucci et al. (2024);Experiment 1;Orientation;1
1;135;146;11;2.25690202973601;4;7;650;1;Pascucci et al. (2024);Experiment 1;Orientation;1
1;154;163.5;9.5;1.10339712311179;4;NaN;651;1;Pascucci et al. (2024);Experiment 1;Orientation;1
1;114;138;24;1.0870990746771;4;40;652;1;Pascucci et al. (2024);Experiment 1;Orientation;1
1;167;NaN;NaN;2.00869334738672;4;-53;653;1;Pascucci et al. (2024);Experiment 1;Orientation;1
1;10;14.5;4.5;0.978936468467509;4;-23;654;1;Pascucci et al. (2024);Experiment 1;Orientation;1
1;164;NaN;NaN;2.00868513661226;4;26;655;1;Pascucci et al. (2024);Experiment 1;Orientation;1
1;27;41.5;14.5;1.29914818332873;4;-43;656;1;Pascucci et al. (2024);Experiment 1;Orientation;1
1;179;NaN;NaN;2.00872037452427;4;28;657;1;Pascucci et al. (2024);Experiment 1;Orientation;1
1;122;138.5;16.5;1.70224460384088;4;57;658;1;Pascucci et al. (2024);Experiment 1;Orientation;1
1;136;143;7;1.27824217892339;4;-14;659;1;Pascucci et al. (2024);Experiment 1;Orientation;1
1;89;83;-6;1.5830012131737;4;47;660;1;Pascucci et al. (2024);Experiment 1;Orientation;1
1;111;NaN;NaN;2.00870703201326;4;-22;661;1;Pascucci et al. (2024);Experiment 1;Orientation;1
1;36;65;29;1.03069685886294;4;75;662;1;Pascucci et al. (2024);Experiment 1;Orientation;1
1;36;35.5;-0.5;2.0094966349825;4;0;663;1;Pascucci et al. (2024);Experiment 1;Orientation;1
1;105;108.5;3.5;1.07724443278312;4;-69;664;1;Pascucci et al. (2024);Experiment 1;Orientation;1
1;47;NaN;NaN;2.00868479449491;4;58;665;1;Pascucci et al. (2024);Experiment 1;Orientation;1
1;1;152.5;-28.5;2.24102820473126;4;46;666;1;Pascucci et al. (2024);Experiment 1;Orientation;1
1;81;63;-18;1.76318224710303;4;-80;667;1;Pascucci et al. (2024);Experiment 1;Orientation;1
1;17;22;5;1.31257656551861;4;64;668;1;Pascucci et al. (2024);Experiment 1;Orientation;1
1;103;134.5;31.5;1.96838870022475;4;-86;669;1;Pascucci et al. (2024);Experiment 1;Orientation;1
1;42;37;-5;1.46892616394325;4;61;670;1;Pascucci et al. (2024);Experiment 1;Orientation;1
1;16;10.5;-5.5;2.17404469333815;4;26;671;1;Pascucci et al. (2024);Experiment 1;Orientation;1
1;134;156;22;0.979258399313039;4;62;672;1;Pascucci et al. (2024);Experiment 1;Orientation;1
1;60;44;-16;1.91958384710779;4;74;673;1;Pascucci et al. (2024);Experiment 1;Orientation;1
1;54;51.5;-2.5;0.806613831493451;4;6;674;1;Pascucci et al. (2024);Experiment 1;Orientation;1
1;109;117.5;8.5;1.23453895468992;4;-55;675;1;Pascucci et al. (2024);Experiment 1;Orientation;1
1;82;80;-2;2.43712582812259;4;27;676;1;Pascucci et al. (2024);Experiment 1;Orientation;1
1;1;NaN;NaN;2.00869779489221;4;81;677;1;Pascucci et al. (2024);Experiment 1;Orientation;1
1;59;56.5;-2.5;1.4746347060227;4;-58;678;1;Pascucci et al. (2024);Experiment 1;Orientation;1
1;38;NaN;NaN;2.00872174298638;4;21;679;1;Pascucci et al. (2024);Experiment 1;Orientation;1
1;11;10;-1;2.17473405641431;4;27;680;1;Pascucci et al. (2024);Experiment 1;Orientation;1
1;78;NaN;NaN;2.00870087393196;4;-67;681;1;Pascucci et al. (2024);Experiment 1;Orientation;1
1;60;58;-2;1.20679850553279;4;18;682;1;Pascucci et al. (2024);Experiment 1;Orientation;1
1;125;NaN;NaN;2.00873132222659;4;-65;683;1;Pascucci et al. (2024);Experiment 1;Orientation;1
1;85;98.5;13.5;1.26165709544148;4;40;684;1;Pascucci et al. (2024);Experiment 1;Orientation;1
1;156;167;11;1.91106687748652;4;-71;685;1;Pascucci et al. (2024);Experiment 1;Orientation;1
1;168;159;-9;2.37444647398115;4;-12;686;1;Pascucci et al. (2024);Experiment 1;Orientation;1
1;102;NaN;NaN;2.00870703201508;4;66;687;1;Pascucci et al. (2024);Experiment 1;Orientation;1
1;140;145.5;5.5;1.27048607455436;4;-38;688;1;Pascucci et al. (2024);Experiment 1;Orientation;1
1;143;147;4;1.70359356593144;4;-3;689;1;Pascucci et al. (2024);Experiment 1;Orientation;1
1;97;109;12;2.17540460312921;4;46;690;1;Pascucci et al. (2024);Experiment 1;Orientation;1
1;103;NaN;NaN;2.00869745277487;4;-6;691;1;Pascucci et al. (2024);Experiment 1;Orientation;1
1;26;22.5;-3.5;1.80740411869374;4;77;692;1;Pascucci et al. (2024);Experiment 1;Orientation;1
1;164;NaN;NaN;2.00868684718989;4;42;693;1;Pascucci et al. (2024);Experiment 1;Orientation;1
1;115;117.5;2.5;1.78235885678987;4;49;694;1;Pascucci et al. (2024);Experiment 1;Orientation;1
1;91;NaN;NaN;2.00869984758356;4;24;695;1;Pascucci et al. (2024);Experiment 1;Orientation;1
1;56;74;18;1.2700857992204;4;35;696;1;Pascucci et al. (2024);Experiment 1;Orientation;1
1;32;NaN;NaN;2.00869711065934;4;24;697;1;Pascucci et al. (2024);Experiment 1;Orientation;1
1;167;147.5;-19.5;1.94648166536899;4;45;698;1;Pascucci et al. (2024);Experiment 1;Orientation;1
1;0;NaN;NaN;2.00870600566668;4;-13;699;1;Pascucci et al. (2024);Experiment 1;Orientation;1
1;81;75.5;-5.5;1.7717375336797;4;-81;700;1;Pascucci et al. (2024);Experiment 1;Orientation;1
1;135;129;-6;0.996328944933339;4;NaN;701;1;Pascucci et al. (2024);Experiment 1;Orientation;1
1;88;76;-12;1.33649318782409;4;47;702;1;Pascucci et al. (2024);Experiment 1;Orientation;1
1;91;72;-19;0.655032983402634;4;-3;703;1;Pascucci et al. (2024);Experiment 1;Orientation;1
1;109;114.5;5.5;1.22504661329185;4;-18;704;1;Pascucci et al. (2024);Experiment 1;Orientation;1
1;52;NaN;NaN;2.00870600566668;4;57;705;1;Pascucci et al. (2024);Experiment 1;Orientation;1
1;34;17;-17;2.67917950743868;4;18;706;1;Pascucci et al. (2024);Experiment 1;Orientation;1
1;138;83;-55;0.807681574502567;4;76;707;1;Pascucci et al. (2024);Experiment 1;Orientation;1
1;139;149;10;1.15597414361218;4;-1;708;1;Pascucci et al. (2024);Experiment 1;Orientation;1
1;34;NaN;NaN;2.00872003241057;4;-75;709;1;Pascucci et al. (2024);Experiment 1;Orientation;1
1;156;135.5;-20.5;1.22842842669525;4;58;710;1;Pascucci et al. (2024);Experiment 1;Orientation;1
1;66;NaN;NaN;2.0087097689393;4;90;711;1;Pascucci et al. (2024);Experiment 1;Orientation;1
1;174;166.5;-7.5;0.986734310949032;4;72;712;1;Pascucci et al. (2024);Experiment 1;Orientation;1
1;147;148;1;1.71919335628263;4;27;713;1;Pascucci et al. (2024);Experiment 1;Orientation;1
1;96;102;6;1.2546611720918;4;51;714;1;Pascucci et al. (2024);Experiment 1;Orientation;1
1;148;NaN;NaN;2.00872311145031;4;-52;715;1;Pascucci et al. (2024);Experiment 1;Orientation;1
1;81;68;-13;2.05968466175545;4;67;716;1;Pascucci et al. (2024);Experiment 1;Orientation;1
1;23;NaN;NaN;2.00865263562264;4;58;717;1;Pascucci et al. (2024);Experiment 1;Orientation;1
1;6;175;-11;1.38419198097836;4;17;718;1;Pascucci et al. (2024);Experiment 1;Orientation;1
1;32;31;-1;1.69314432700048;4;-26;719;1;Pascucci et al. (2024);Experiment 1;Orientation;1
1;152;162;10;1.40451194123671;4;60;720;1;Pascucci et al. (2024);Experiment 1;Orientation;1
1;137;NaN;NaN;2.00871969029322;4;15;721;1;Pascucci et al. (2024);Experiment 1;Orientation;1
1;19;35.5;16.5;1.17170770119264;4;-62;722;1;Pascucci et al. (2024);Experiment 1;Orientation;1
1;170;149.5;-20.5;1.67281547173297;4;29;723;1;Pascucci et al. (2024);Experiment 1;Orientation;1
1;55;50;-5;2.48212909190624;4;-65;724;1;Pascucci et al. (2024);Experiment 1;Orientation;1
1;5;NaN;NaN;2.00873132222659;4;50;725;1;Pascucci et al. (2024);Experiment 1;Orientation;1
1;51;66.5;15.5;1.31767990497792;4;-46;726;1;Pascucci et al. (2024);Experiment 1;Orientation;1
1;99;NaN;NaN;2.0087316643403;4;-48;727;1;Pascucci et al. (2024);Experiment 1;Orientation;1
1;88;70.5;-17.5;1.38406163490617;4;11;728;1;Pascucci et al. (2024);Experiment 1;Orientation;1
1;154;139.5;-14.5;1.18870640252135;4;-66;729;1;Pascucci et al. (2024);Experiment 1;Orientation;1
1;170;149;-21;1.38515708928389;4;-16;730;1;Pascucci et al. (2024);Experiment 1;Orientation;1
1;84;73;-11;1.08564576730896;4;86;731;1;Pascucci et al. (2024);Experiment 1;Orientation;1
1;100;108.5;8.5;1.65401142601149;4;-16;732;1;Pascucci et al. (2024);Experiment 1;Orientation;1
1;130;140;10;1.64775276193177;4;-30;733;1;Pascucci et al. (2024);Experiment 1;Orientation;1
1;154;155;1;1.24180446518767;4;-24;734;1;Pascucci et al. (2024);Experiment 1;Orientation;1
1;171;NaN;NaN;2.00869950546985;4;-17;735;1;Pascucci et al. (2024);Experiment 1;Orientation;1
1;79;68;-11;2.42362697010503;4;-88;736;1;Pascucci et al. (2024);Experiment 1;Orientation;1
1;130;NaN;NaN;2.0086834260328;4;-51;737;1;Pascucci et al. (2024);Experiment 1;Orientation;1
1;80;125;45;1.09381309471428;4;50;738;1;Pascucci et al. (2024);Experiment 1;Orientation;1
1;161;NaN;NaN;2.00868582084149;4;-81;739;1;Pascucci et al. (2024);Experiment 1;Orientation;1
1;63;53.5;-9.5;2.76909161108233;4;-82;740;1;Pascucci et al. (2024);Experiment 1;Orientation;1
1;21;NaN;NaN;2.00872961164896;4;42;741;1;Pascucci et al. (2024);Experiment 1;Orientation;1
1;97;94;-3;0.745671740729449;4;-76;742;1;Pascucci et al. (2024);Experiment 1;Orientation;1
1;126;NaN;NaN;2.00877784995646;4;-29;743;1;Pascucci et al. (2024);Experiment 1;Orientation;1
1;97;122;25;2.16296082984081;4;29;744;1;Pascucci et al. (2024);Experiment 1;Orientation;1
1;59;75.5;16.5;2.19235232922438;4;38;745;1;Pascucci et al. (2024);Experiment 1;Orientation;1
1;139;126;-13;2.02048436397672;4;-80;746;1;Pascucci et al. (2024);Experiment 1;Orientation;1
1;142;NaN;NaN;2.00875355974313;4;-3;747;1;Pascucci et al. (2024);Experiment 1;Orientation;1
1;38;68.5;30.5;1.18675702742985;4;-76;748;1;Pascucci et al. (2024);Experiment 1;Orientation;1
1;96;NaN;NaN;2.00868376814833;4;-58;749;1;Pascucci et al. (2024);Experiment 1;Orientation;1
1;108;116;8;0.938604109936932;4;-12;750;1;Pascucci et al. (2024);Experiment 1;Orientation;1
1;149;148;-1;2.07629643025939;4;NaN;751;1;Pascucci et al. (2024);Experiment 1;Orientation;1
1;156;158.5;2.5;1.23716537669316;4;-7;752;1;Pascucci et al. (2024);Experiment 1;Orientation;1
1;142;164;22;1.1195046131179;4;14;753;1;Pascucci et al. (2024);Experiment 1;Orientation;1
1;113;113.5;0.5;2.23900527477053;4;29;754;1;Pascucci et al. (2024);Experiment 1;Orientation;1
1;68;72;4;1.27303791534177;4;45;755;1;Pascucci et al. (2024);Experiment 1;Orientation;1
1;125;126.5;1.5;1.63405752951803;4;-57;756;1;Pascucci et al. (2024);Experiment 1;Orientation;1
1;135;131;-4;1.36449090796486;4;-10;757;1;Pascucci et al. (2024);Experiment 1;Orientation;1
1;3;23.5;20.5;1.81809215436078;4;-48;758;1;Pascucci et al. (2024);Experiment 1;Orientation;1
1;42;28;-14;2.3971496120048;4;-39;759;1;Pascucci et al. (2024);Experiment 1;Orientation;1
1;22;44;22;1.20099074990685;4;20;760;1;Pascucci et al. (2024);Experiment 1;Orientation;1
1;36;NaN;NaN;2.00870190027854;4;-14;761;1;Pascucci et al. (2024);Experiment 1;Orientation;1
1;142;143.5;1.5;1.11219770662501;4;74;762;1;Pascucci et al. (2024);Experiment 1;Orientation;1
1;138;NaN;NaN;2.00869676854381;4;4;763;1;Pascucci et al. (2024);Experiment 1;Orientation;1
1;157;151.5;-5.5;2.25902451535694;4;-19;764;1;Pascucci et al. (2024);Experiment 1;Orientation;1
1;111;NaN;NaN;2.00868855776753;4;46;765;1;Pascucci et al. (2024);Experiment 1;Orientation;1
1;53;55.5;2.5;1.04782316933597;4;58;766;1;Pascucci et al. (2024);Experiment 1;Orientation;1
1;41;NaN;NaN;2.00867555737204;4;12;767;1;Pascucci et al. (2024);Experiment 1;Orientation;1
1;151;155.5;4.5;1.15739905538248;4;70;768;1;Pascucci et al. (2024);Experiment 1;Orientation;1
1;79;NaN;NaN;2.00869026834698;4;72;769;1;Pascucci et al. (2024);Experiment 1;Orientation;1
1;141;145;4;1.8701655805944;4;-62;770;1;Pascucci et al. (2024);Experiment 1;Orientation;1
1;114;NaN;NaN;2.00870532143563;4;27;771;1;Pascucci et al. (2024);Experiment 1;Orientation;1
1;86;70.5;-15.5;2.23449140061166;4;28;772;1;Pascucci et al. (2024);Experiment 1;Orientation;1
1;120;NaN;NaN;2.00872003240875;4;-34;773;1;Pascucci et al. (2024);Experiment 1;Orientation;1
1;10;36;26;1.64018995291553;4;-70;774;1;Pascucci et al. (2024);Experiment 1;Orientation;1
1;11;NaN;NaN;2.00868787353465;4;-1;775;1;Pascucci et al. (2024);Experiment 1;Orientation;1
1;51;59;8;0.741662145068403;4;-40;776;1;Pascucci et al. (2024);Experiment 1;Orientation;1
1;121;120;-1;1.49198133898972;4;-70;777;1;Pascucci et al. (2024);Experiment 1;Orientation;1
1;121;113.5;-7.5;0.996111359367205;4;0;778;1;Pascucci et al. (2024);Experiment 1;Orientation;1
1;176;NaN;NaN;2.00870121604748;4;-55;779;1;Pascucci et al. (2024);Experiment 1;Orientation;1
1;153;153.5;0.5;2.02806462089211;4;23;780;1;Pascucci et al. (2024);Experiment 1;Orientation;1
1;12;NaN;NaN;2.0087207166398;4;-39;781;1;Pascucci et al. (2024);Experiment 1;Orientation;1
1;156;163;7;0.889989815248555;4;36;782;1;Pascucci et al. (2024);Experiment 1;Orientation;1
1;173;11.5;18.5;1.89820435461661;4;-17;783;1;Pascucci et al. (2024);Experiment 1;Orientation;1
1;131;134.5;3.5;1.09012919317138;4;42;784;1;Pascucci et al. (2024);Experiment 1;Orientation;1
1;134;119;-15;2.47429087977616;4;-3;785;1;Pascucci et al. (2024);Experiment 1;Orientation;1
1;47;35;-12;0.91528276889585;4;87;786;1;Pascucci et al. (2024);Experiment 1;Orientation;1
1;113;124;11;1.94678512196697;4;-66;787;1;Pascucci et al. (2024);Experiment 1;Orientation;1
1;135;119.5;-15.5;1.14411265119452;4;-22;788;1;Pascucci et al. (2024);Experiment 1;Orientation;1
1;20;NaN;NaN;2.008725506259;4;-65;789;1;Pascucci et al. (2024);Experiment 1;Orientation;1
1;63;56.5;-6.5;2.08177336003064;4;-43;790;1;Pascucci et al. (2024);Experiment 1;Orientation;1
1;154;NaN;NaN;2.00868376814833;4;89;791;1;Pascucci et al. (2024);Experiment 1;Orientation;1
1;41;34;-7;1.36591103011415;4;-67;792;1;Pascucci et al. (2024);Experiment 1;Orientation;1
1;156;146.5;-9.5;2.146883446012;4;65;793;1;Pascucci et al. (2024);Experiment 1;Orientation;1
1;154;156.5;2.5;1.48089200164031;4;2;794;1;Pascucci et al. (2024);Experiment 1;Orientation;1
1;55;NaN;NaN;2.00870361085799;4;-81;795;1;Pascucci et al. (2024);Experiment 1;Orientation;1
1;162;151;-11;3.06901141916933;4;73;796;1;Pascucci et al. (2024);Experiment 1;Orientation;1
1;179;NaN;NaN;2.00869334738672;4;-17;797;1;Pascucci et al. (2024);Experiment 1;Orientation;1
1;67;146;79;1.78534450024745;4;-68;798;1;Pascucci et al. (2024);Experiment 1;Orientation;1
1;120;NaN;NaN;2.00869368950225;4;-53;799;1;Pascucci et al. (2024);Experiment 1;Orientation;1
1;26;20;-6;0.664944758613274;4;-86;800;1;Pascucci et al. (2024);Experiment 1;Orientation;1
2;40;35;-5;2.43337099417158;1;NaN;801;1;Pascucci et al. (2024);Experiment 1;Orientation;1
2;53;70;17;2.26708898218976;1;-13;802;1;Pascucci et al. (2024);Experiment 1;Orientation;1
2;39;NaN;NaN;2.00875840860817;1;14;803;1;Pascucci et al. (2024);Experiment 1;Orientation;1
2;118;134;16;2.95161170019355;1;-79;804;1;Pascucci et al. (2024);Experiment 1;Orientation;1
2;171;NaN;NaN;2.00870195913603;1;-53;805;1;Pascucci et al. (2024);Experiment 1;Orientation;1
2;3;178;-5;2.28054516782004;1;-12;806;1;Pascucci et al. (2024);Experiment 1;Orientation;1
2;168;151;-17;1.8010246941094;1;15;807;1;Pascucci et al. (2024);Experiment 1;Orientation;1
2;137;32;75;2.37336794247904;1;31;808;1;Pascucci et al. (2024);Experiment 1;Orientation;1
2;157;141.5;-15.5;2.74567923702625;1;-20;809;1;Pascucci et al. (2024);Experiment 1;Orientation;1
2;46;26.5;-19.5;4.01551250239254;1;-69;810;1;Pascucci et al. (2024);Experiment 1;Orientation;1
2;32;NaN;NaN;2.00875464530964;1;14;811;1;Pascucci et al. (2024);Experiment 1;Orientation;1
2;100;92;-8;3.06201386675912;1;-68;812;1;Pascucci et al. (2024);Experiment 1;Orientation;1
2;130;137.5;7.5;2.18327793807293;1;-30;813;1;Pascucci et al. (2024);Experiment 1;Orientation;1
2;24;32;8;2.86813353690195;1;-74;814;1;Pascucci et al. (2024);Experiment 1;Orientation;1
2;70;52;-18;1.90046266264017;1;-46;815;1;Pascucci et al. (2024);Experiment 1;Orientation;1
2;169;140.5;-28.5;2.11625086148479;1;81;816;1;Pascucci et al. (2024);Experiment 1;Orientation;1
2;24;NaN;NaN;2.008738565763;1;-35;817;1;Pascucci et al. (2024);Experiment 1;Orientation;1
2;2;1.5;-0.5;2.62249725213951;1;22;818;1;Pascucci et al. (2024);Experiment 1;Orientation;1
2;173;NaN;NaN;2.00872522316104;1;9;819;1;Pascucci et al. (2024);Experiment 1;Orientation;1
2;143;141.5;-1.5;1.30879179932572;1;30;820;1;Pascucci et al. (2024);Experiment 1;Orientation;1
2;52;NaN;NaN;2.00877551450867;1;-89;821;1;Pascucci et al. (2024);Experiment 1;Orientation;1
2;75;66.5;-8.5;2.77566074896913;1;-23;822;1;Pascucci et al. (2024);Experiment 1;Orientation;1
2;28;NaN;NaN;2.00872898645912;1;47;823;1;Pascucci et al. (2024);Experiment 1;Orientation;1
2;88;88;0;1.59989009393576;1;-60;824;1;Pascucci et al. (2024);Experiment 1;Orientation;1
2;142;131;-11;1.24410720476317;1;-54;825;1;Pascucci et al. (2024);Experiment 1;Orientation;1
2;48;61;13;2.19751483700566;1;-86;826;1;Pascucci et al. (2024);Experiment 1;Orientation;1
2;87;NaN;NaN;2.00871016996871;1;-39;827;1;Pascucci et al. (2024);Experiment 1;Orientation;1
2;110;117.5;7.5;1.33290325042617;1;-23;828;1;Pascucci et al. (2024);Experiment 1;Orientation;1
2;51;NaN;NaN;2.00873993423511;1;59;829;1;Pascucci et al. (2024);Experiment 1;Orientation;1
2;163;128;-35;1.84687021824811;1;68;830;1;Pascucci et al. (2024);Experiment 1;Orientation;1
2;74;59.5;-14.5;2.69672967616907;1;89;831;1;Pascucci et al. (2024);Experiment 1;Orientation;1
2;73;59;-14;2.06482573469611;1;1;832;1;Pascucci et al. (2024);Experiment 1;Orientation;1
2;102;NaN;NaN;2.00874164482548;1;-29;833;1;Pascucci et al. (2024);Experiment 1;Orientation;1
2;44;58.5;14.5;1.65336177067002;1;58;834;1;Pascucci et al. (2024);Experiment 1;Orientation;1
2;71;NaN;NaN;2.00871906503653;1;-27;835;1;Pascucci et al. (2024);Experiment 1;Orientation;1
2;65;57;-8;1.21874120691427;1;6;836;1;Pascucci et al. (2024);Experiment 1;Orientation;1
2;33;59.5;26.5;3.70965318405524;1;32;837;1;Pascucci et al. (2024);Experiment 1;Orientation;1
2;24;109.5;85.5;3.94078913901603;1;9;838;1;Pascucci et al. (2024);Experiment 1;Orientation;1
2;13;NaN;NaN;2.00869785372015;1;11;839;1;Pascucci et al. (2024);Experiment 1;Orientation;1
2;144;123.5;-20.5;2.15001927769708;1;49;840;1;Pascucci et al. (2024);Experiment 1;Orientation;1
2;7;145;-42;2.97952818781914;1;-43;841;1;Pascucci et al. (2024);Experiment 1;Orientation;1
2;159;24.5;45.5;5.24806003626873;1;28;842;1;Pascucci et al. (2024);Experiment 1;Orientation;1
2;35;28;-7;2.40167102345731;1;-56;843;1;Pascucci et al. (2024);Experiment 1;Orientation;1
2;159;31;52;4.26124936985025;1;56;844;1;Pascucci et al. (2024);Experiment 1;Orientation;1
2;80;NaN;NaN;2.0087327497572;1;79;845;1;Pascucci et al. (2024);Experiment 1;Orientation;1
2;141;135;-6;2.04981838600088;1;-61;846;1;Pascucci et al. (2024);Experiment 1;Orientation;1
2;64;NaN;NaN;2.00874061847162;1;77;847;1;Pascucci et al. (2024);Experiment 1;Orientation;1
2;13;42.5;29.5;2.02280748475278;1;51;848;1;Pascucci et al. (2024);Experiment 1;Orientation;1
2;81;NaN;NaN;2.00875122412981;1;-68;849;1;Pascucci et al. (2024);Experiment 1;Orientation;1
2;60;50.5;-9.5;2.6211301485655;1;21;850;1;Pascucci et al. (2024);Experiment 1;Orientation;1
2;82;74.5;-7.5;2.27347803605517;1;NaN;851;1;Pascucci et al. (2024);Experiment 1;Orientation;1
2;150;117.5;-32.5;2.77009209409471;1;-68;852;1;Pascucci et al. (2024);Experiment 1;Orientation;1
2;161;NaN;NaN;2.00870777514228;1;-11;853;1;Pascucci et al. (2024);Experiment 1;Orientation;1
2;68;63;-5;2.26624874035315;1;-87;854;1;Pascucci et al. (2024);Experiment 1;Orientation;1
2;25;146.5;-58.5;2.57920700742989;1;43;855;1;Pascucci et al. (2024);Experiment 1;Orientation;1
2;36;24;-12;3.08004588079393;1;-11;856;1;Pascucci et al. (2024);Experiment 1;Orientation;1
2;70;61.5;-8.5;2.34461600267014;1;-34;857;1;Pascucci et al. (2024);Experiment 1;Orientation;1
2;100;134;34;1.86236679569947;1;-30;858;1;Pascucci et al. (2024);Experiment 1;Orientation;1
2;78;53.5;-24.5;2.93603233018348;1;22;859;1;Pascucci et al. (2024);Experiment 1;Orientation;1
2;172;148.5;-23.5;1.1502115480198;1;86;860;1;Pascucci et al. (2024);Experiment 1;Orientation;1
2;132;NaN;NaN;2.00870538031631;1;40;861;1;Pascucci et al. (2024);Experiment 1;Orientation;1
2;150;151;1;1.68718732059051;1;-18;862;1;Pascucci et al. (2024);Experiment 1;Orientation;1
2;89;NaN;NaN;2.00883846422266;1;61;863;1;Pascucci et al. (2024);Experiment 1;Orientation;1
2;103;98.5;-4.5;5.09892361055336;1;-14;864;1;Pascucci et al. (2024);Experiment 1;Orientation;1
2;115;NaN;NaN;2.00876559308608;1;-12;865;1;Pascucci et al. (2024);Experiment 1;Orientation;1
2;103;91.5;-11.5;1.94953470174596;1;12;866;1;Pascucci et al. (2024);Experiment 1;Orientation;1
2;117;NaN;NaN;2.00870161701823;1;-14;867;1;Pascucci et al. (2024);Experiment 1;Orientation;1
2;44;57;13;1.65517396977748;1;73;868;1;Pascucci et al. (2024);Experiment 1;Orientation;1
2;91;NaN;NaN;2.00875019777595;1;-47;869;1;Pascucci et al. (2024);Experiment 1;Orientation;1
2;116;104;-12;3.51618681699301;1;-25;870;1;Pascucci et al. (2024);Experiment 1;Orientation;1
2;60;NaN;NaN;2.00873993423556;1;56;871;1;Pascucci et al. (2024);Experiment 1;Orientation;1
2;50;60.5;10.5;1.84603408182784;1;10;872;1;Pascucci et al. (2024);Experiment 1;Orientation;1
2;64;NaN;NaN;2.00873411822931;1;-14;873;1;Pascucci et al. (2024);Experiment 1;Orientation;1
2;24;121;-83;3.4357623990727;1;40;874;1;Pascucci et al. (2024);Experiment 1;Orientation;1
2;73;NaN;NaN;2.0087211177447;1;-49;875;1;Pascucci et al. (2024);Experiment 1;Orientation;1
2;157;127;-30;1.52898134638917;1;-84;876;1;Pascucci et al. (2024);Experiment 1;Orientation;1
2;100;105.5;5.5;2.3515380763979;1;57;877;1;Pascucci et al. (2024);Experiment 1;Orientation;1
2;66;54;-12;3.80517732253384;1;34;878;1;Pascucci et al. (2024);Experiment 1;Orientation;1
2;30;NaN;NaN;2.00872796010481;1;36;879;1;Pascucci et al. (2024);Experiment 1;Orientation;1
2;62;70.5;8.5;1.84415722241647;1;-32;880;1;Pascucci et al. (2024);Experiment 1;Orientation;1
2;31;109;78;3.42262917284506;1;31;881;1;Pascucci et al. (2024);Experiment 1;Orientation;1
2;88;94;6;3.69684839111915;1;-57;882;1;Pascucci et al. (2024);Experiment 1;Orientation;1
2;172;144;-28;3.00065158020607;1;-84;883;1;Pascucci et al. (2024);Experiment 1;Orientation;1
2;139;67.5;-71.5;2.82018193428439;1;33;884;1;Pascucci et al. (2024);Experiment 1;Orientation;1
2;44;49;5;2.07162669864738;1;-85;885;1;Pascucci et al. (2024);Experiment 1;Orientation;1
2;90;98.5;8.5;1.68838952328315;1;-46;886;1;Pascucci et al. (2024);Experiment 1;Orientation;1
2;119;116.5;-2.5;3.69670196460993;1;-29;887;1;Pascucci et al. (2024);Experiment 1;Orientation;1
2;123;117;-6;1.21635253895784;1;-4;888;1;Pascucci et al. (2024);Experiment 1;Orientation;1
2;31;NaN;NaN;2.00871838080047;1;-88;889;1;Pascucci et al. (2024);Experiment 1;Orientation;1
2;128;118;-10;1.15905564073682;1;83;890;1;Pascucci et al. (2024);Experiment 1;Orientation;1
2;77;70.5;-6.5;2.07652788128098;1;51;891;1;Pascucci et al. (2024);Experiment 1;Orientation;1
2;28;117;89;2.50108470160876;1;49;892;1;Pascucci et al. (2024);Experiment 1;Orientation;1
2;48;NaN;NaN;2.00873172340334;1;-20;893;1;Pascucci et al. (2024);Experiment 1;Orientation;1
2;91;108;17;2.08812157645662;1;-43;894;1;Pascucci et al. (2024);Experiment 1;Orientation;1
2;117;NaN;NaN;2.00873103916683;1;-26;895;1;Pascucci et al. (2024);Experiment 1;Orientation;1
2;147;120;-27;2.54767159547828;1;-30;896;1;Pascucci et al. (2024);Experiment 1;Orientation;1
2;77;NaN;NaN;2.00869477465812;1;70;897;1;Pascucci et al. (2024);Experiment 1;Orientation;1
2;16;33;17;2.9490068136538;1;61;898;1;Pascucci et al. (2024);Experiment 1;Orientation;1
2;164;NaN;NaN;2.00873446034757;1;32;899;1;Pascucci et al. (2024);Experiment 1;Orientation;1
2;3;1;-2;2.1102634541644;1;-19;900;1;Pascucci et al. (2024);Experiment 1;Orientation;1
2;163;153;-10;3.54546596065802;1;NaN;901;1;Pascucci et al. (2024);Experiment 1;Orientation;1
2;55;17;-38;3.66314737215498;1;-72;902;1;Pascucci et al. (2024);Experiment 1;Orientation;1
2;150;NaN;NaN;2.00870640667017;1;85;903;1;Pascucci et al. (2024);Experiment 1;Orientation;1
2;84;74.5;-9.5;2.56441964061605;1;66;904;1;Pascucci et al. (2024);Experiment 1;Orientation;1
2;77;NaN;NaN;2.00876456673222;1;7;905;1;Pascucci et al. (2024);Experiment 1;Orientation;1
2;130;138.5;8.5;3.01240949202747;1;-53;906;1;Pascucci et al. (2024);Experiment 1;Orientation;1
2;165;NaN;NaN;2.00871359114853;1;-35;907;1;Pascucci et al. (2024);Experiment 1;Orientation;1
2;0;176.5;-3.5;2.89087480536637;1;-15;908;1;Pascucci et al. (2024);Experiment 1;Orientation;1
2;48;NaN;NaN;2.00871735444662;1;-48;909;1;Pascucci et al. (2024);Experiment 1;Orientation;1
2;58;47.5;-10.5;1.83812397128304;1;-10;910;1;Pascucci et al. (2024);Experiment 1;Orientation;1
2;52;NaN;NaN;2.00870777514228;1;6;911;1;Pascucci et al. (2024);Experiment 1;Orientation;1
2;145;147.5;2.5;2.94790964119102;1;87;912;1;Pascucci et al. (2024);Experiment 1;Orientation;1
2;17;40;23;2.2817220537795;1;-52;913;1;Pascucci et al. (2024);Experiment 1;Orientation;1
2;176;140;-36;2.59450652490659;1;21;914;1;Pascucci et al. (2024);Experiment 1;Orientation;1
2;137;NaN;NaN;2.00873993423556;1;39;915;1;Pascucci et al. (2024);Experiment 1;Orientation;1
2;41;33.5;-7.5;4.24164600778795;1;-84;916;1;Pascucci et al. (2024);Experiment 1;Orientation;1
2;142;NaN;NaN;2.00876627732214;1;79;917;1;Pascucci et al. (2024);Experiment 1;Orientation;1
2;26;36.5;10.5;1.55082455507272;1;-64;918;1;Pascucci et al. (2024);Experiment 1;Orientation;1
2;78;NaN;NaN;2.00873480246491;1;-52;919;1;Pascucci et al. (2024);Experiment 1;Orientation;1
2;6;1.5;-4.5;1.51990153436236;1;72;920;1;Pascucci et al. (2024);Experiment 1;Orientation;1
2;134;NaN;NaN;2.00872488104324;1;52;921;1;Pascucci et al. (2024);Experiment 1;Orientation;1
2;32;50.5;18.5;2.19446348646034;1;-78;922;1;Pascucci et al. (2024);Experiment 1;Orientation;1
2;32;142;-70;5.91031805619923;1;0;923;1;Pascucci et al. (2024);Experiment 1;Orientation;1
2;109;130.5;21.5;2.73330346007606;1;-77;924;1;Pascucci et al. (2024);Experiment 1;Orientation;1
2;59;33;-26;2.79547246089987;1;50;925;1;Pascucci et al. (2024);Experiment 1;Orientation;1
2;111;137.5;26.5;3.11929331696138;1;-52;926;1;Pascucci et al. (2024);Experiment 1;Orientation;1
2;146;128;-18;4.40611718913487;1;-35;927;1;Pascucci et al. (2024);Experiment 1;Orientation;1
2;78;43.5;-34.5;5.45744652288113;1;68;928;1;Pascucci et al. (2024);Experiment 1;Orientation;1
2;35;48.5;13.5;1.81847100210916;1;43;929;1;Pascucci et al. (2024);Experiment 1;Orientation;1
2;31;46.5;15.5;1.83738841755803;1;4;930;1;Pascucci et al. (2024);Experiment 1;Orientation;1
2;160;NaN;NaN;2.0087207756269;1;51;931;1;Pascucci et al. (2024);Experiment 1;Orientation;1
2;75;91.5;16.5;1.95519299153921;1;85;932;1;Pascucci et al. (2024);Experiment 1;Orientation;1
2;54;NaN;NaN;2.0087207756269;1;21;933;1;Pascucci et al. (2024);Experiment 1;Orientation;1
2;120;116.5;-3.5;1.09235323414123;1;-66;934;1;Pascucci et al. (2024);Experiment 1;Orientation;1
2;88;NaN;NaN;2.00875225048367;1;32;935;1;Pascucci et al. (2024);Experiment 1;Orientation;1
2;36;44.5;8.5;2.20015804076274;1;52;936;1;Pascucci et al. (2024);Experiment 1;Orientation;1
2;149;132;-17;1.54759119774553;1;67;937;1;Pascucci et al. (2024);Experiment 1;Orientation;1
2;108;129;21;3.08149406633675;1;41;938;1;Pascucci et al. (2024);Experiment 1;Orientation;1
2;172;2.5;10.5;2.37012500584751;1;-64;939;1;Pascucci et al. (2024);Experiment 1;Orientation;1
2;67;45.5;-21.5;2.08716056696176;1;-75;940;1;Pascucci et al. (2024);Experiment 1;Orientation;1
2;143;NaN;NaN;2.00872419680672;1;-76;941;1;Pascucci et al. (2024);Experiment 1;Orientation;1
2;81;96.5;15.5;2.36278520602764;1;62;942;1;Pascucci et al. (2024);Experiment 1;Orientation;1
2;143;NaN;NaN;2.00872590739709;1;-62;943;1;Pascucci et al. (2024);Experiment 1;Orientation;1
2;116;113.5;-2.5;4.09934578418006;1;27;944;1;Pascucci et al. (2024);Experiment 1;Orientation;1
2;29;40;11;1.8748623139536;1;87;945;1;Pascucci et al. (2024);Experiment 1;Orientation;1
2;152;142.5;-9.5;3.61148481546616;1;57;946;1;Pascucci et al. (2024);Experiment 1;Orientation;1
2;66;NaN;NaN;2.00871906503698;1;86;947;1;Pascucci et al. (2024);Experiment 1;Orientation;1
2;103;57;-46;2.35401398444765;1;-37;948;1;Pascucci et al. (2024);Experiment 1;Orientation;1
2;89;87;-2;2.00840602705603;1;14;949;1;Pascucci et al. (2024);Experiment 1;Orientation;1
2;123;126;3;2.68311611625313;1;-34;950;1;Pascucci et al. (2024);Experiment 1;Orientation;1
2;155;139.5;-15.5;2.25507858727588;1;NaN;951;1;Pascucci et al. (2024);Experiment 1;Orientation;1
2;0;177;-3;2.53681584885362;1;-25;952;1;Pascucci et al. (2024);Experiment 1;Orientation;1
2;173;164;-9;2.0791515843116;1;7;953;1;Pascucci et al. (2024);Experiment 1;Orientation;1
2;140;154.5;14.5;2.05581913592368;1;33;954;1;Pascucci et al. (2024);Experiment 1;Orientation;1
2;43;NaN;NaN;2.00874746083173;1;-83;955;1;Pascucci et al. (2024);Experiment 1;Orientation;1
2;59;37.5;-21.5;2.96471379368222;1;-16;956;1;Pascucci et al. (2024);Experiment 1;Orientation;1
2;168;NaN;NaN;2.0087789356885;1;71;957;1;Pascucci et al. (2024);Experiment 1;Orientation;1
2;154;164.5;10.5;2.45348445418904;1;14;958;1;Pascucci et al. (2024);Experiment 1;Orientation;1
2;56;19;-37;2.4871153389613;1;-82;959;1;Pascucci et al. (2024);Experiment 1;Orientation;1
2;48;147.5;-80.5;5.07919161211885;1;8;960;1;Pascucci et al. (2024);Experiment 1;Orientation;1
2;57;NaN;NaN;2.00873035493078;1;-9;961;1;Pascucci et al. (2024);Experiment 1;Orientation;1
2;98;145;47;3.25103851567701;1;-41;962;1;Pascucci et al. (2024);Experiment 1;Orientation;1
2;70;NaN;NaN;2.00874609236007;1;28;963;1;Pascucci et al. (2024);Experiment 1;Orientation;1
2;108;138.5;30.5;2.63167559415388;1;-38;964;1;Pascucci et al. (2024);Experiment 1;Orientation;1
2;108;NaN;NaN;2.00871461750285;1;0;965;1;Pascucci et al. (2024);Experiment 1;Orientation;1
2;140;143;3;2.2138608934797;1;-32;966;1;Pascucci et al. (2024);Experiment 1;Orientation;1
2;129;NaN;NaN;2.00858187571384;1;11;967;1;Pascucci et al. (2024);Experiment 1;Orientation;1
2;123;137;14;2.06035664711089;1;6;968;1;Pascucci et al. (2024);Experiment 1;Orientation;1
2;0;178.5;-1.5;2.23007831358109;1;-57;969;1;Pascucci et al. (2024);Experiment 1;Orientation;1
2;109;137.5;28.5;1.42443487170976;1;71;970;1;Pascucci et al. (2024);Experiment 1;Orientation;1
2;104;NaN;NaN;2.00872556527929;1;5;971;1;Pascucci et al. (2024);Experiment 1;Orientation;1
2;139;151;12;1.58255668488073;1;-35;972;1;Pascucci et al. (2024);Experiment 1;Orientation;1
2;5;3.5;-1.5;3.02696969248109;1;-46;973;1;Pascucci et al. (2024);Experiment 1;Orientation;1
2;23;22.5;-0.5;1.70958578680711;1;-18;974;1;Pascucci et al. (2024);Experiment 1;Orientation;1
2;66;62;-4;3.70091856910267;1;-43;975;1;Pascucci et al. (2024);Experiment 1;Orientation;1
2;95;113;18;2.58044307980526;1;-29;976;1;Pascucci et al. (2024);Experiment 1;Orientation;1
2;63;NaN;NaN;2.00870503819806;1;32;977;1;Pascucci et al. (2024);Experiment 1;Orientation;1
2;146;147;1;2.85234718549509;1;-83;978;1;Pascucci et al. (2024);Experiment 1;Orientation;1
2;161;NaN;NaN;2.00871769656487;1;-15;979;1;Pascucci et al. (2024);Experiment 1;Orientation;1
2;107;123;16;2.87377848409324;1;54;980;1;Pascucci et al. (2024);Experiment 1;Orientation;1
2;123;20.5;77.5;4.48975101612177;1;-16;981;1;Pascucci et al. (2024);Experiment 1;Orientation;1
2;70;35;-35;2.88974855287233;1;53;982;1;Pascucci et al. (2024);Experiment 1;Orientation;1
2;179;NaN;NaN;2.00873377611151;1;71;983;1;Pascucci et al. (2024);Experiment 1;Orientation;1
2;152;138.5;-13.5;1.67739282403818;1;27;984;1;Pascucci et al. (2024);Experiment 1;Orientation;1
2;58;41;-17;2.43013113660163;1;-86;985;1;Pascucci et al. (2024);Experiment 1;Orientation;1
2;153;155.5;2.5;2.39277869210036;1;85;986;1;Pascucci et al. (2024);Experiment 1;Orientation;1
2;60;NaN;NaN;2.00873788152785;1;-87;987;1;Pascucci et al. (2024);Experiment 1;Orientation;1
2;138;136;-2;3.64807262621161;1;-78;988;1;Pascucci et al. (2024);Experiment 1;Orientation;1
2;116;NaN;NaN;2.00869066924133;1;22;989;1;Pascucci et al. (2024);Experiment 1;Orientation;1
2;13;179.5;-13.5;2.10939173747101;1;-77;990;1;Pascucci et al. (2024);Experiment 1;Orientation;1
2;54;NaN;NaN;2.00871530173845;1;-41;991;1;Pascucci et al. (2024);Experiment 1;Orientation;1
2;4;2.5;-1.5;1.14393299827225;1;50;992;1;Pascucci et al. (2024);Experiment 1;Orientation;1
2;21;20.5;-0.5;2.47026842171726;1;-17;993;1;Pascucci et al. (2024);Experiment 1;Orientation;1
2;46;37;-9;2.15111952922234;1;-25;994;1;Pascucci et al. (2024);Experiment 1;Orientation;1
2;95;NaN;NaN;2.00872590739709;1;-49;995;1;Pascucci et al. (2024);Experiment 1;Orientation;1
2;51;47;-4;1.64821700001266;1;44;996;1;Pascucci et al. (2024);Experiment 1;Orientation;1
2;161;NaN;NaN;2.00873548670097;1;70;997;1;Pascucci et al. (2024);Experiment 1;Orientation;1
2;71;60;-11;3.21353964466653;1;90;998;1;Pascucci et al. (2024);Experiment 1;Orientation;1
2;176;3.5;7.5;2.66471529900173;1;75;999;1;Pascucci et al. (2024);Experiment 1;Orientation;1
2;176;177;1;2.17071844375005;1;0;1000;1;Pascucci et al. (2024);Experiment 1;Orientation;1
2;51;24.5;-26.5;4.59781720094816;2;NaN;1001;1;Pascucci et al. (2024);Experiment 1;Orientation;1
2;9;0.5;-8.5;2.60169476649207;2;42;1002;1;Pascucci et al. (2024);Experiment 1;Orientation;1
2;11;0.5;-10.5;1.88513885482917;2;-2;1003;1;Pascucci et al. (2024);Experiment 1;Orientation;1
2;34;35;1;1.24566042057995;2;-23;1004;1;Pascucci et al. (2024);Experiment 1;Orientation;1
2;146;NaN;NaN;2.00872317049743;2;68;1005;1;Pascucci et al. (2024);Experiment 1;Orientation;1
2;170;124.5;-45.5;3.55510821473945;2;-24;1006;1;Pascucci et al. (2024);Experiment 1;Orientation;1
2;115;128;13;1.87245654014077;2;55;1007;1;Pascucci et al. (2024);Experiment 1;Orientation;1
2;31;34;3;1.48189564450331;2;84;1008;1;Pascucci et al. (2024);Experiment 1;Orientation;1
2;36;NaN;NaN;2.0087371973359;2;-5;1009;1;Pascucci et al. (2024);Experiment 1;Orientation;1
2;22;28;6;2.13333247172795;2;14;1010;1;Pascucci et al. (2024);Experiment 1;Orientation;1
2;32;150.5;-61.5;4.06779189790086;2;-10;1011;1;Pascucci et al. (2024);Experiment 1;Orientation;1
2;52;25.5;-26.5;3.46837650915859;2;-20;1012;1;Pascucci et al. (2024);Experiment 1;Orientation;1
2;106;NaN;NaN;2.00871667025513;2;-54;1013;1;Pascucci et al. (2024);Experiment 1;Orientation;1
2;7;3;-4;2.1207401340771;2;-81;1014;1;Pascucci et al. (2024);Experiment 1;Orientation;1
2;85;103.5;18.5;1.76771745302085;2;-78;1015;1;Pascucci et al. (2024);Experiment 1;Orientation;1
2;49;67.5;18.5;2.59663313051078;2;36;1016;1;Pascucci et al. (2024);Experiment 1;Orientation;1
2;0;NaN;NaN;2.00872009143586;2;49;1017;1;Pascucci et al. (2024);Experiment 1;Orientation;1
2;72;66;-6;1.23617280388316;2;-72;1018;1;Pascucci et al. (2024);Experiment 1;Orientation;1
2;7;NaN;NaN;2.00875704018017;2;65;1019;1;Pascucci et al. (2024);Experiment 1;Orientation;1
2;4;179;-5;2.07377759463088;2;3;1020;1;Pascucci et al. (2024);Experiment 1;Orientation;1
2;47;NaN;NaN;2.00874917146666;2;-43;1021;1;Pascucci et al. (2024);Experiment 1;Orientation;1
2;35;35.5;0.5;3.10976601462062;2;12;1022;1;Pascucci et al. (2024);Experiment 1;Orientation;1
2;144;NaN;NaN;2.00875156629263;2;71;1023;1;Pascucci et al. (2024);Experiment 1;Orientation;1
2;159;139.5;-19.5;3.05650953011536;2;-15;1024;1;Pascucci et al. (2024);Experiment 1;Orientation;1
2;102;NaN;NaN;2.00871256483879;2;57;1025;1;Pascucci et al. (2024);Experiment 1;Orientation;1
2;52;51;-1;1.9096943751083;2;50;1026;1;Pascucci et al. (2024);Experiment 1;Orientation;1
2;77;101.5;24.5;3.73278309862508;2;-25;1027;1;Pascucci et al. (2024);Experiment 1;Orientation;1
2;150;129.5;-20.5;1.61077663122614;2;-73;1028;1;Pascucci et al. (2024);Experiment 1;Orientation;1
2;33;NaN;NaN;2.00874130275133;2;-63;1029;1;Pascucci et al. (2024);Experiment 1;Orientation;1
2;131;115.5;-15.5;1.63369888011948;2;82;1030;1;Pascucci et al. (2024);Experiment 1;Orientation;1
2;103;NaN;NaN;2.00870264341665;2;28;1031;1;Pascucci et al. (2024);Experiment 1;Orientation;1
2;34;42;8;2.23131541235489;2;69;1032;1;Pascucci et al. (2024);Experiment 1;Orientation;1
2;9;NaN;NaN;2.00871530178301;2;25;1033;1;Pascucci et al. (2024);Experiment 1;Orientation;1
2;132;119;-13;2.82134445133306;2;57;1034;1;Pascucci et al. (2024);Experiment 1;Orientation;1
2;156;NaN;NaN;2.00871701237247;2;-24;1035;1;Pascucci et al. (2024);Experiment 1;Orientation;1
2;86;71;-15;3.56358726753842;2;70;1036;1;Pascucci et al. (2024);Experiment 1;Orientation;1
2;70;NaN;NaN;2.00872351261569;2;16;1037;1;Pascucci et al. (2024);Experiment 1;Orientation;1
2;115;121;6;1.59659378693959;2;-45;1038;1;Pascucci et al. (2024);Experiment 1;Orientation;1
2;77;NaN;NaN;2.00873959216187;2;38;1039;1;Pascucci et al. (2024);Experiment 1;Orientation;1
2;145;139.5;-5.5;3.02752700276596;2;-68;1040;1;Pascucci et al. (2024);Experiment 1;Orientation;1
2;104;110;6;2.15817537113708;2;41;1041;1;Pascucci et al. (2024);Experiment 1;Orientation;1
2;76;99.5;23.5;3.57188362931902;2;28;1042;1;Pascucci et al. (2024);Experiment 1;Orientation;1
2;16;NaN;NaN;2.00877825149746;2;60;1043;1;Pascucci et al. (2024);Experiment 1;Orientation;1
2;170;175;5;3.75633826583817;2;26;1044;1;Pascucci et al. (2024);Experiment 1;Orientation;1
2;6;3.5;-2.5;2.48101469062385;2;-16;1045;1;Pascucci et al. (2024);Experiment 1;Orientation;1
2;139;137.5;-1.5;2.42558165132959;2;47;1046;1;Pascucci et al. (2024);Experiment 1;Orientation;1
2;75;38;-37;3.14025215062975;2;64;1047;1;Pascucci et al. (2024);Experiment 1;Orientation;1
2;71;62.5;-8.5;1.57862095932069;2;4;1048;1;Pascucci et al. (2024);Experiment 1;Orientation;1
2;143;121.5;-21.5;1.67926899925806;2;-72;1049;1;Pascucci et al. (2024);Experiment 1;Orientation;1
2;121;117;-4;2.11999808010933;2;22;1050;1;Pascucci et al. (2024);Experiment 1;Orientation;1
2;65;60.5;-4.5;2.08200211162875;2;NaN;1051;1;Pascucci et al. (2024);Experiment 1;Orientation;1
2;51;54;3;1.97027731683102;2;14;1052;1;Pascucci et al. (2024);Experiment 1;Orientation;1
2;144;NaN;NaN;2.00871598601952;2;87;1053;1;Pascucci et al. (2024);Experiment 1;Orientation;1
2;171;2.5;11.5;2.21888489652338;2;-27;1054;1;Pascucci et al. (2024);Experiment 1;Orientation;1
2;34;NaN;NaN;2.00876901431093;2;-43;1055;1;Pascucci et al. (2024);Experiment 1;Orientation;1
2;70;61.5;-8.5;1.86551701839471;2;-36;1056;1;Pascucci et al. (2024);Experiment 1;Orientation;1
2;142;NaN;NaN;2.00872590744166;2;-72;1057;1;Pascucci et al. (2024);Experiment 1;Orientation;1
2;168;131;-37;3.73359015501501;2;-26;1058;1;Pascucci et al. (2024);Experiment 1;Orientation;1
2;18;NaN;NaN;2.00871598601952;2;-30;1059;1;Pascucci et al. (2024);Experiment 1;Orientation;1
2;116;130.5;14.5;2.29494799403255;2;82;1060;1;Pascucci et al. (2024);Experiment 1;Orientation;1
2;52;48.5;-3.5;2.89497885307719;2;64;1061;1;Pascucci et al. (2024);Experiment 1;Orientation;1
2;52;50;-2;2.04734624129378;2;0;1062;1;Pascucci et al. (2024);Experiment 1;Orientation;1
2;143;NaN;NaN;2.00870640671474;2;89;1063;1;Pascucci et al. (2024);Experiment 1;Orientation;1
2;128;139.5;11.5;1.80403191147525;2;15;1064;1;Pascucci et al. (2024);Experiment 1;Orientation;1
2;1;20;19;3.18398680663722;2;-53;1065;1;Pascucci et al. (2024);Experiment 1;Orientation;1
2;44;46;2;2.48425215336647;2;-43;1066;1;Pascucci et al. (2024);Experiment 1;Orientation;1
2;88;130;42;1.76457544120331;2;-44;1067;1;Pascucci et al. (2024);Experiment 1;Orientation;1
2;69;43.5;-25.5;2.04199243653056;2;19;1068;1;Pascucci et al. (2024);Experiment 1;Orientation;1
2;22;NaN;NaN;2.00870127494454;2;47;1069;1;Pascucci et al. (2024);Experiment 1;Orientation;1
2;44;48;4;0.999871551184697;2;-22;1070;1;Pascucci et al. (2024);Experiment 1;Orientation;1
2;39;51.5;12.5;1.6118067485595;2;5;1071;1;Pascucci et al. (2024);Experiment 1;Orientation;1
2;17;67;50;4.02241712814612;2;22;1072;1;Pascucci et al. (2024);Experiment 1;Orientation;1
2;24;NaN;NaN;2.00872248626183;2;-7;1073;1;Pascucci et al. (2024);Experiment 1;Orientation;1
2;156;133.5;-22.5;2.05274281080801;2;48;1074;1;Pascucci et al. (2024);Experiment 1;Orientation;1
2;80;NaN;NaN;2.00873411827433;2;76;1075;1;Pascucci et al. (2024);Experiment 1;Orientation;1
2;59;92;33;1.578159100005;2;21;1076;1;Pascucci et al. (2024);Experiment 1;Orientation;1
2;0;NaN;NaN;2.00873206556571;2;59;1077;1;Pascucci et al. (2024);Experiment 1;Orientation;1
2;31;50;19;2.16167865957595;2;-31;1078;1;Pascucci et al. (2024);Experiment 1;Orientation;1
2;41;NaN;NaN;2.00872932862148;2;-10;1079;1;Pascucci et al. (2024);Experiment 1;Orientation;1
2;146;140.5;-5.5;2.55442739989667;2;75;1080;1;Pascucci et al. (2024);Experiment 1;Orientation;1
2;87;NaN;NaN;2.00875019782052;2;59;1081;1;Pascucci et al. (2024);Experiment 1;Orientation;1
2;20;19;-1;1.49958554052682;2;67;1082;1;Pascucci et al. (2024);Experiment 1;Orientation;1
2;123;132.5;9.5;1.5317949249611;2;77;1083;1;Pascucci et al. (2024);Experiment 1;Orientation;1
2;60;56;-4;1.49773878750057;2;63;1084;1;Pascucci et al. (2024);Experiment 1;Orientation;1
2;138;NaN;NaN;2.00874198698784;2;-78;1085;1;Pascucci et al. (2024);Experiment 1;Orientation;1
2;84;96;12;1.62901901818805;2;54;1086;1;Pascucci et al. (2024);Experiment 1;Orientation;1
2;153;NaN;NaN;2.00870982789456;2;-69;1087;1;Pascucci et al. (2024);Experiment 1;Orientation;1
