obs;theta;delta;trial;block;rt;error;resp;study;experiment;stimulus;expnum
1;1;NaN;1;1;1.01153484266251;-5.53777250790665;175.462227492093;Sadil et al. (2022);Experiment 1;Orientation;1
1;117;64;2;1;0.892557288520038;-3.03751102542201;113.962488974578;Sadil et al. (2022);Experiment 1;Orientation;1
1;41;76;3;1;0.893758646212518;0.403282922371503;41.4032829223715;Sadil et al. (2022);Experiment 1;Orientation;1
1;41;0;4;1;0.874747013673186;1.1375947738882;42.1375947738882;Sadil et al. (2022);Experiment 1;Orientation;1
1;128;-87;5;1;0.915981043130159;-5.15959572852699;122.840404271473;Sadil et al. (2022);Experiment 1;Orientation;1
1;133;-5;6;1;0.831041749566793;-7.405311500957;125.594688499043;Sadil et al. (2022);Experiment 1;Orientation;1
1;6;-53;7;1;0.774245914071798;5.9518751300248;11.9518751300248;Sadil et al. (2022);Experiment 1;Orientation;1
1;117;69;8;1;0.861460542306304;0.824096384252996;117.824096384253;Sadil et al. (2022);Experiment 1;Orientation;1
1;4;-67;9;1;0.858587548136711;10.3399285013422;14.3399285013422;Sadil et al. (2022);Experiment 1;Orientation;1
1;154;30;10;1;0.867701866663992;-8.91183021661001;145.08816978339;Sadil et al. (2022);Experiment 1;Orientation;1
1;14;-40;11;1;0.860817605629563;1.4520106411297;15.4520106411297;Sadil et al. (2022);Experiment 1;Orientation;1
1;71;-57;12;1;1.10809500608593;6.60033357369019;77.6003335736902;Sadil et al. (2022);Experiment 1;Orientation;1
1;66;5;13;1;0.846858314238489;-1.22392339736081;64.7760766026392;Sadil et al. (2022);Experiment 1;Orientation;1
1;125;-59;14;1;0.809990223497152;-8.217095197825;116.782904802175;Sadil et al. (2022);Experiment 1;Orientation;1
1;126;-1;15;1;0.707127159461379;-2.30993247402;123.69006752598;Sadil et al. (2022);Experiment 1;Orientation;1
1;156;-30;16;1;0.922289678826928;-24.215483991748;131.784516008252;Sadil et al. (2022);Experiment 1;Orientation;1
1;69;87;17;1;0.797265795059502;-1.55087548166701;67.449124518333;Sadil et al. (2022);Experiment 1;Orientation;1
1;66;3;18;1;0.780449205078185;-1.55996517182381;64.4400348281762;Sadil et al. (2022);Experiment 1;Orientation;1
1;110;-44;19;1;1.16165955085307;13.192936578401;123.192936578401;Sadil et al. (2022);Experiment 1;Orientation;1
1;72;38;20;1;0.752466027624905;-8.3544058779226;63.6455941220774;Sadil et al. (2022);Experiment 1;Orientation;1
1;127;-55;21;1;0.809702561236918;-1.260221531171;125.739778468829;Sadil et al. (2022);Experiment 1;Orientation;1
1;166;-39;22;1;0.736805819906294;-18.932231041347;147.067768958653;Sadil et al. (2022);Experiment 1;Orientation;1
1;131;35;23;1;0.770028484985232;-3.03794076318501;127.962059236815;Sadil et al. (2022);Experiment 1;Orientation;1
1;9;-58;24;1;0.909272759221494;6.1010981613854;15.1010981613854;Sadil et al. (2022);Experiment 1;Orientation;1
1;40;-31;25;1;0.766221570782363;-3.6156481841641;36.3843518158359;Sadil et al. (2022);Experiment 1;Orientation;1
1;56;-16;26;1;0.679472091607749;-8.9854012121294;47.0145987878706;Sadil et al. (2022);Experiment 1;Orientation;1
1;81;-25;27;1;0.796709789894521;-5.8134641188047;75.1865358811953;Sadil et al. (2022);Experiment 1;Orientation;1
1;24;57;28;1;0.831877869553864;3.8340539405508;27.8340539405508;Sadil et al. (2022);Experiment 1;Orientation;1
1;79;-55;29;1;0.846997768618166;2.15818543980831;81.1581854398083;Sadil et al. (2022);Experiment 1;Orientation;1
1;68;11;30;1;0.886096521280706;7.7627195342389;75.7627195342389;Sadil et al. (2022);Experiment 1;Orientation;1
1;107;-39;31;1;0.831134115345776;5.16634582208199;112.166345822082;Sadil et al. (2022);Experiment 1;Orientation;1
1;142;-35;32;1;0.856291385367513;-5.66778014613001;136.33221985387;Sadil et al. (2022);Experiment 1;Orientation;1
1;35;-73;33;1;0.785525997169316;-0.145544433896298;34.8544555661037;Sadil et al. (2022);Experiment 1;Orientation;1
1;76;-41;34;1;0.854607975110412;3.1498953702026;79.1498953702026;Sadil et al. (2022);Experiment 1;Orientation;1
1;179;77;35;1;1.29372224304825;-7.32565033042701;171.674349669573;Sadil et al. (2022);Experiment 1;Orientation;1
1;40;-41;36;1;0.690728931687772;3.7269699799433;43.7269699799433;Sadil et al. (2022);Experiment 1;Orientation;1
1;125;-85;37;1;0.819958471693099;-9.02560603756901;115.974393962431;Sadil et al. (2022);Experiment 1;Orientation;1
1;48;77;38;1;0.7091477336362;0.957553114127897;48.9575531141279;Sadil et al. (2022);Experiment 1;Orientation;1
1;178;50;39;1;0.80639882851392;-11.684019752247;166.315980247753;Sadil et al. (2022);Experiment 1;Orientation;1
1;7;-9;40;1;0.733502690680325;8.5463272730791;15.5463272730791;Sadil et al. (2022);Experiment 1;Orientation;1
1;41;-34;41;1;0.972761784680188;9.0862217096346;50.0862217096346;Sadil et al. (2022);Experiment 1;Orientation;1
1;64;-23;42;1;0.805857613682747;1.10869987513421;65.1086998751342;Sadil et al. (2022);Experiment 1;Orientation;1
1;8;56;43;1;1.16511632222682;4.4332351880956;12.4332351880956;Sadil et al. (2022);Experiment 1;Orientation;1
1;123;65;44;1;1.01389137469232;-3.199056314381;119.800943685619;Sadil et al. (2022);Experiment 1;Orientation;1
1;50;73;45;1;1.03497278317809;9.683219752396;59.683219752396;Sadil et al. (2022);Experiment 1;Orientation;1
1;63;-13;46;1;0.81779451854527;3.4183488551501;66.4183488551501;Sadil et al. (2022);Experiment 1;Orientation;1
1;145;-82;47;1;0.963003321550787;-2.321036192631;142.678963807369;Sadil et al. (2022);Experiment 1;Orientation;1
1;57;88;48;1;0.858065048232675;3.1990563143808;60.1990563143808;Sadil et al. (2022);Experiment 1;Orientation;1
1;140;-83;49;1;1.0151784569025;-2.76052406204801;137.239475937952;Sadil et al. (2022);Experiment 1;Orientation;1
1;134;6;50;1;0.870148651301861;1;135;Sadil et al. (2022);Experiment 1;Orientation;1
1;8;-54;51;1;1.16320169623941;7.5928109392663;15.5928109392663;Sadil et al. (2022);Experiment 1;Orientation;1
1;114;74;52;1;0.856203244999051;1.75527076016699;115.755270760167;Sadil et al. (2022);Experiment 1;Orientation;1
1;140;-26;53;1;0.801329281181097;-8.17983011986399;131.820169880136;Sadil et al. (2022);Experiment 1;Orientation;1
1;149;-9;54;1;0.812474738806486;-6.366669412769;142.633330587231;Sadil et al. (2022);Experiment 1;Orientation;1
1;39;-70;55;1;0.919618620537221;1.8918878228641;40.8918878228641;Sadil et al. (2022);Experiment 1;Orientation;1
1;65;-26;56;1;0.854689474217594;6.565051177078;71.565051177078;Sadil et al. (2022);Experiment 1;Orientation;1
1;57;8;57;1;0.993759280070663;3.7086378290157;60.7086378290157;Sadil et al. (2022);Experiment 1;Orientation;1
1;155;82;58;1;1.05079417861998;-4.84593194968701;150.154068050313;Sadil et al. (2022);Experiment 1;Orientation;1
1;165;-10;59;1;0.91197279561311;-9.73950886974799;155.260491130252;Sadil et al. (2022);Experiment 1;Orientation;1
1;52;-67;60;1;0.880978677421808;7.2753065292094;59.2753065292094;Sadil et al. (2022);Experiment 1;Orientation;1
1;105;-53;61;1;0.884141146205366;1.520892189004;106.520892189004;Sadil et al. (2022);Experiment 1;Orientation;1
1;110;-5;62;1;0.879355033859611;7.149681697783;117.149681697783;Sadil et al. (2022);Experiment 1;Orientation;1
1;97;13;63;1;0.826375169679523;3.416028307571;100.416028307571;Sadil et al. (2022);Experiment 1;Orientation;1
1;134;-37;64;1;0.971540505066514;-1.544804379813;132.455195620187;Sadil et al. (2022);Experiment 1;Orientation;1
1;34;-80;65;1;0.836691751144826;1.0279423126689;35.0279423126689;Sadil et al. (2022);Experiment 1;Orientation;1
1;164;50;66;1;1.07778759393841;-6.356891329294;157.643108670706;Sadil et al. (2022);Experiment 1;Orientation;1
1;39;-55;67;1;0.776775707490742;-4.1755108430432;34.8244891569568;Sadil et al. (2022);Experiment 1;Orientation;1
1;64;-25;68;1;0.813942327164114;2.31791227546159;66.3179122754616;Sadil et al. (2022);Experiment 1;Orientation;1
1;153;-89;69;1;0.945069891400635;-9.30449712257499;143.695502877425;Sadil et al. (2022);Experiment 1;Orientation;1
1;63;90;70;1;0.786043968982995;-0.159795692296498;62.8402043077035;Sadil et al. (2022);Experiment 1;Orientation;1
1;155;88;71;1;0.917248202487826;-5.89168640717401;149.108313592826;Sadil et al. (2022);Experiment 1;Orientation;1
1;34;-59;72;1;1.28431422635913;2.869897645844;36.869897645844;Sadil et al. (2022);Experiment 1;Orientation;1
1;144;70;73;1;1.17325717955828;-1.988141725525;142.011858274475;Sadil et al. (2022);Experiment 1;Orientation;1
1;141;3;74;1;1.26218540221453;-0.574773631580001;140.42522636842;Sadil et al. (2022);Experiment 1;Orientation;1
1;19;-58;75;1;0.857122072950006;7.565051177078;26.565051177078;Sadil et al. (2022);Experiment 1;Orientation;1
1;98;-79;76;1;0.84222312644124;1.3954660195669;99.3954660195669;Sadil et al. (2022);Experiment 1;Orientation;1
1;35;63;77;1;1.04537026118487;9.3634064240365;44.3634064240365;Sadil et al. (2022);Experiment 1;Orientation;1
1;126;89;78;1;1.02240109071136;0.209456817185995;126.209456817186;Sadil et al. (2022);Experiment 1;Orientation;1
1;106;20;79;1;0.879441362805665;5.40517943011901;111.405179430119;Sadil et al. (2022);Experiment 1;Orientation;1
1;26;80;80;1;1.03246230911464;3.9084273214051;29.9084273214051;Sadil et al. (2022);Experiment 1;Orientation;1
1;12;14;81;1;0.991540390998125;4.6144244891264;16.6144244891264;Sadil et al. (2022);Experiment 1;Orientation;1
1;25;-13;82;1;1.08866591658443;2.7796207250217;27.7796207250217;Sadil et al. (2022);Experiment 1;Orientation;1
1;80;-55;83;1;0.99959522113204;-2.1237382477894;77.8762617522106;Sadil et al. (2022);Experiment 1;Orientation;1
1;40;40;84;1;0.980712175369263;-4.4053115009569;35.5946884990431;Sadil et al. (2022);Experiment 1;Orientation;1
1;99;-59;85;1;1.07172013539821;3.699584489597;102.699584489597;Sadil et al. (2022);Experiment 1;Orientation;1
1;15;84;86;1;0.984721328131855;9.5458440260296;24.5458440260296;Sadil et al. (2022);Experiment 1;Orientation;1
1;48;-33;87;1;1.07370992191136;9.7243556854224;57.7243556854224;Sadil et al. (2022);Experiment 1;Orientation;1
1;135;-87;88;1;1.0847286041826;-4.019582487837;130.980417512163;Sadil et al. (2022);Experiment 1;Orientation;1
1;118;17;89;1;1.03363861329854;-3.28920053777;114.71079946223;Sadil et al. (2022);Experiment 1;Orientation;1
1;8;-70;90;1;0.80065555498004;8.46001481204;16.46001481204;Sadil et al. (2022);Experiment 1;Orientation;1
1;145;43;91;1;1.12776768766344;-15.863872010769;129.136127989231;Sadil et al. (2022);Experiment 1;Orientation;1
1;76;69;92;1;0.966695534065366;-1.10109816138539;74.8989018386146;Sadil et al. (2022);Experiment 1;Orientation;1
1;76;0;93;1;0.960063315927982;2.2669158435878;78.2669158435878;Sadil et al. (2022);Experiment 1;Orientation;1
1;11;65;94;1;1.10675449669361;3.3399285013422;14.3399285013422;Sadil et al. (2022);Experiment 1;Orientation;1
1;5;6;95;1;0.881683493964374;7.0648844105254;12.0648844105254;Sadil et al. (2022);Experiment 1;Orientation;1
1;148;37;96;1;0.902830404229462;-7.80557109226501;140.194428907735;Sadil et al. (2022);Experiment 1;Orientation;1
1;117;31;97;1;1.1899795923382;2.458404786665;119.458404786665;Sadil et al. (2022);Experiment 1;Orientation;1
1;80;37;98;1;1.03891885094345;-3.24051991518721;76.7594800848128;Sadil et al. (2022);Experiment 1;Orientation;1
1;26;54;99;1;1.28794878534973;-0.0466242976357982;25.9533757023642;Sadil et al. (2022);Experiment 1;Orientation;1
1;97;-71;100;1;0.91084810718894;6.290801411286;103.290801411286;Sadil et al. (2022);Experiment 1;Orientation;1
1;57;40;101;1;0.78180480748415;4.7314872128709;61.7314872128709;Sadil et al. (2022);Experiment 1;Orientation;1
1;89;-32;1;2;1.45019331853837;1.86805144974559;90.8680514497456;Sadil et al. (2022);Experiment 1;Orientation;1
1;151;-62;2;2;0.959012882784009;-2.04549082686299;148.954509173137;Sadil et al. (2022);Experiment 1;Orientation;1
1;108;43;3;2;0.868082799948752;2.725558865561;110.725558865561;Sadil et al. (2022);Experiment 1;Orientation;1
1;163;-55;4;2;0.891213760711253;-5.988716802081;157.011283197919;Sadil et al. (2022);Experiment 1;Orientation;1
1;96;67;5;2;0.926331129856408;-1.5328409386107;94.4671590613893;Sadil et al. (2022);Experiment 1;Orientation;1
1;146;-50;6;2;1.01538099814206;-0.755912553541009;145.244087446459;Sadil et al. (2022);Experiment 1;Orientation;1
1;118;28;7;2;0.958219323307276;5.287527688913;123.287527688913;Sadil et al. (2022);Experiment 1;Orientation;1
1;55;63;8;2;0.871302618645132;6.8762646167112;61.8762646167112;Sadil et al. (2022);Experiment 1;Orientation;1
1;170;65;9;2;1.33255204837769;-4.349332042947;165.650667957053;Sadil et al. (2022);Experiment 1;Orientation;1
1;110;60;10;2;1.35142452921718;8.334242483125;118.334242483125;Sadil et al. (2022);Experiment 1;Orientation;1
1;148;-38;11;2;1.1100905276835;-1.192936578401;146.807063421599;Sadil et al. (2022);Experiment 1;Orientation;1
1;74;74;12;2;0.877111997455359;-1.7446716250569;72.2553283749431;Sadil et al. (2022);Experiment 1;Orientation;1
1;139;-65;13;2;1.09231798257679;4.31764924410601;143.317649244106;Sadil et al. (2022);Experiment 1;Orientation;1
1;49;90;14;2;1.01122122164816;7.9381504945048;56.9381504945048;Sadil et al. (2022);Experiment 1;Orientation;1
1;161;68;15;2;1.01821052655578;-3.24902365721201;157.750976342788;Sadil et al. (2022);Experiment 1;Orientation;1
1;11;-30;16;2;0.975121938623488;14.6556707278789;25.6556707278789;Sadil et al. (2022);Experiment 1;Orientation;1
1;112;79;17;2;1.16600254923105;-4.332359492168;107.667640507832;Sadil et al. (2022);Experiment 1;Orientation;1
1;26;86;18;2;1.24705614522099;-6.584534544037;19.415465455963;Sadil et al. (2022);Experiment 1;Orientation;1
1;62;-36;19;2;1.1099543934688;-8.2538377374448;53.7461622625552;Sadil et al. (2022);Experiment 1;Orientation;1
1;63;-1;20;2;0.92482943367213;-5.5740571345725;57.4259428654275;Sadil et al. (2022);Experiment 1;Orientation;1
1;114;-51;21;2;1.32780246064067;6.884945330729;120.884945330729;Sadil et al. (2022);Experiment 1;Orientation;1
1;14;-80;22;2;0.82668365817517;3.1985412200659;17.1985412200659;Sadil et al. (2022);Experiment 1;Orientation;1
1;26;-12;23;2;0.793806912377477;-0.217095176978699;25.7829048230213;Sadil et al. (2022);Experiment 1;Orientation;1
1;51;-25;24;2;0.832915022037923;-3.3369992339329;47.6630007660671;Sadil et al. (2022);Experiment 1;Orientation;1
1;117;-66;25;2;1.33404740598053;-1.846882861526;115.153117138474;Sadil et al. (2022);Experiment 1;Orientation;1
1;152;-35;26;2;1.26483382191509;-7.340106921558;144.659893078442;Sadil et al. (2022);Experiment 1;Orientation;1
1;72;80;27;2;0.913728044368327;-8.565051177078;63.434948822922;Sadil et al. (2022);Experiment 1;Orientation;1
1;54;18;28;2;1.08083747327328;-6.5889702533888;47.4110297466112;Sadil et al. (2022);Experiment 1;Orientation;1
1;21;33;29;2;0.947854747064412;5.3784206335124;26.3784206335124;Sadil et al. (2022);Experiment 1;Orientation;1
1;99;-78;30;2;1.32094928994775;3.66981426495001;102.66981426495;Sadil et al. (2022);Experiment 1;Orientation;1
1;106;-7;31;2;1.01376218348742;2.434948822922;108.434948822922;Sadil et al. (2022);Experiment 1;Orientation;1
1;122;-16;32;2;1.12679633870721;-5.434948822922;116.565051177078;Sadil et al. (2022);Experiment 1;Orientation;1
1;123;-1;33;2;1.08375604730099;-5.056965576617;117.943034423383;Sadil et al. (2022);Experiment 1;Orientation;1
1;115;8;34;2;1.15270098671317;0.918885571046005;115.918885571046;Sadil et al. (2022);Experiment 1;Orientation;1
1;134;-19;35;2;0.879631829448044;-6.03794076318501;127.962059236815;Sadil et al. (2022);Experiment 1;Orientation;1
1;35;-81;36;2;1.16866787243634;3.862744050738;38.862744050738;Sadil et al. (2022);Experiment 1;Orientation;1
1;20;15;37;2;0.929691911675036;6.384307992669;26.384307992669;Sadil et al. (2022);Experiment 1;Orientation;1
1;60;-40;38;2;1.18062228523195;0.865707802773798;60.8657078027738;Sadil et al. (2022);Experiment 1;Orientation;1
1;57;3;39;2;1.31550031900406;12.7751405688319;69.7751405688319;Sadil et al. (2022);Experiment 1;Orientation;1
1;58;-1;40;2;0.934449650347233;1.3354354195201;59.3354354195201;Sadil et al. (2022);Experiment 1;Orientation;1
1;15;43;41;2;1.15942526888102;6.0067894307719;21.0067894307719;Sadil et al. (2022);Experiment 1;Orientation;1
1;122;73;42;2;1.00233268644661;-8.438454652229;113.561545347771;Sadil et al. (2022);Experiment 1;Orientation;1
1;33;89;43;2;1.03736946173012;-1.507838875273;31.492161124727;Sadil et al. (2022);Experiment 1;Orientation;1
1;109;-76;44;2;1.4503300562501;-2.877401222283;106.122598777717;Sadil et al. (2022);Experiment 1;Orientation;1
1;129;-20;45;2;1.15514807309955;-2.914926957148;126.085073042852;Sadil et al. (2022);Experiment 1;Orientation;1
1;96;33;46;2;0.922023749910295;3.3954660195669;99.3954660195669;Sadil et al. (2022);Experiment 1;Orientation;1
1;85;11;47;2;1.85710969660431;-11.6992442339936;73.3007557660064;Sadil et al. (2022);Experiment 1;Orientation;1
1;27;58;48;2;0.993568209931254;-5.7494944928668;21.2505055071332;Sadil et al. (2022);Experiment 1;Orientation;1
1;49;-22;49;2;0.93673162534833;-18.191096549024;30.808903450976;Sadil et al. (2022);Experiment 1;Orientation;1
1;173;56;50;2;1.11175552476197;-6.79086689736101;166.209133102639;Sadil et al. (2022);Experiment 1;Orientation;1
1;106;67;51;2;1.10066439863294;6.266588273312;112.266588273312;Sadil et al. (2022);Experiment 1;Orientation;1
1;65;41;52;2;1.07569035049528;-2.1597956922965;62.8402043077035;Sadil et al. (2022);Experiment 1;Orientation;1
1;30;35;53;2;1.38856518920511;2.2367865521302;32.2367865521302;Sadil et al. (2022);Experiment 1;Orientation;1
1;15;15;54;2;0.985339514911175;4.7079788429787;19.7079788429787;Sadil et al. (2022);Experiment 1;Orientation;1
1;176;19;55;2;1.5002808701247;-10.962155254327;165.037844745673;Sadil et al. (2022);Experiment 1;Orientation;1
1;160;16;56;2;1.24298179335892;-14.321052803465;145.678947196535;Sadil et al. (2022);Experiment 1;Orientation;1
1;121;39;57;2;1.23372651077807;-8.53325007900401;112.466749920996;Sadil et al. (2022);Experiment 1;Orientation;1
1;8;-67;58;2;0.906584192998707;5.2163240637906;13.2163240637906;Sadil et al. (2022);Experiment 1;Orientation;1
1;52;-44;59;2;1.30382722895592;6.124637248411;58.124637248411;Sadil et al. (2022);Experiment 1;Orientation;1
1;67;-15;60;2;0.956580888479948;2.4919010282316;69.4919010282316;Sadil et al. (2022);Experiment 1;Orientation;1
1;51;16;61;2;0.909688706509769;7.7607851117912;58.7607851117912;Sadil et al. (2022);Experiment 1;Orientation;1
1;165;66;62;2;1.28069898486137;-7.28558764683299;157.714412353167;Sadil et al. (2022);Experiment 1;Orientation;1
1;108;57;63;2;1.4357954422012;2.973493421321;110.973493421321;Sadil et al. (2022);Experiment 1;Orientation;1
1;109;-1;64;2;1.05824259575456;1.609692937532;110.609692937532;Sadil et al. (2022);Experiment 1;Orientation;1
1;28;81;65;2;0.877212210558355;7.4399035191137;35.4399035191137;Sadil et al. (2022);Experiment 1;Orientation;1
1;116;-88;66;2;1.10037794522941;1.824096384253;117.824096384253;Sadil et al. (2022);Experiment 1;Orientation;1
1;7;-71;67;2;0.805403934791684;11.5691307310378;18.5691307310378;Sadil et al. (2022);Experiment 1;Orientation;1
1;27;-20;68;2;0.836478042416275;0.666757292284402;27.6667572922844;Sadil et al. (2022);Experiment 1;Orientation;1
1;157;50;69;2;1.26155876461416;-10.178511659393;146.821488340607;Sadil et al. (2022);Experiment 1;Orientation;1
1;103;54;70;2;0.856484265998006;0.348727113286998;103.348727113287;Sadil et al. (2022);Experiment 1;Orientation;1
1;13;90;71;2;0.891585637815297;1.1360617981471;14.1360617981471;Sadil et al. (2022);Experiment 1;Orientation;1
1;2;11;72;2;1.11469492595643;-2;0;Sadil et al. (2022);Experiment 1;Orientation;1
1;67;-65;73;2;0.857649703510106;1.1985905136482;68.1985905136482;Sadil et al. (2022);Experiment 1;Orientation;1
1;113;-46;74;2;1.37875299714506;1.89130012486601;114.891300124866;Sadil et al. (2022);Experiment 1;Orientation;1
1;8;-75;75;2;0.85157650988549;3.9761324442034;11.9761324442034;Sadil et al. (2022);Experiment 1;Orientation;1
1;88;-80;76;2;1.05272540636361;0.726969979943306;88.7269699799433;Sadil et al. (2022);Experiment 1;Orientation;1
1;114;-26;77;2;1.0357382716611;-1.19028889612299;112.809711103877;Sadil et al. (2022);Experiment 1;Orientation;1
1;119;-5;78;2;0.866752251051366;-0.868657635939002;118.131342364061;Sadil et al. (2022);Experiment 1;Orientation;1
1;20;-81;79;2;1.01971614826471;0.854458039578301;20.8544580395783;Sadil et al. (2022);Experiment 1;Orientation;1
1;125;75;80;2;1.13274094555527;-0.784297867562998;124.215702132437;Sadil et al. (2022);Experiment 1;Orientation;1
1;119;6;81;2;1.53390439134091;0.232817457524007;119.232817457524;Sadil et al. (2022);Experiment 1;Orientation;1
1;98;21;82;2;1.26438708603382;0.781162734385504;98.7811627343855;Sadil et al. (2022);Experiment 1;Orientation;1
1;94;4;83;2;1.0672886967659;5.98182928773321;99.9818292877332;Sadil et al. (2022);Experiment 1;Orientation;1
1;42;52;84;2;0.964243617840111;9.3401917459099;51.3401917459099;Sadil et al. (2022);Experiment 1;Orientation;1
1;62;-20;85;2;0.82324801851064;-2.0896862387767;59.9103137612233;Sadil et al. (2022);Experiment 1;Orientation;1
1;179;63;86;2;1.36644783616066;-14.880138777075;164.119861222925;Sadil et al. (2022);Experiment 1;Orientation;1
1;56;-57;87;2;0.791245122440159;4.4221613187387;60.4221613187387;Sadil et al. (2022);Experiment 1;Orientation;1
1;75;-19;88;2;0.998411068692803;-5.6589100633075;69.3410899366925;Sadil et al. (2022);Experiment 1;Orientation;1
1;9;66;89;2;1.33139174245298;4.2405199151872;13.2405199151872;Sadil et al. (2022);Experiment 1;Orientation;1
1;23;-14;90;2;1.00419599749148;10.3106308245608;33.3106308245608;Sadil et al. (2022);Experiment 1;Orientation;1
1;123;80;91;2;1.12731732893735;3.616751519071;126.616751519071;Sadil et al. (2022);Experiment 1;Orientation;1
1;2;-59;92;2;1.12030719779432;2.59054318560603;4.59054318560603;Sadil et al. (2022);Experiment 1;Orientation;1
1;26;-24;93;2;0.881219251081347;7.5759326579989;33.5759326579989;Sadil et al. (2022);Experiment 1;Orientation;1
1;174;32;94;2;1.2542739501223;-12.434948822922;161.565051177078;Sadil et al. (2022);Experiment 1;Orientation;1
1;154;20;95;2;1.20313536189497;-4.80144597613699;149.198554023863;Sadil et al. (2022);Experiment 1;Orientation;1
1;5;-31;96;2;0.867985906079412;7.3390872783262;12.3390872783262;Sadil et al. (2022);Experiment 1;Orientation;1
1;130;55;97;2;1.25312481168658;0.262556651989996;130.26255665199;Sadil et al. (2022);Experiment 1;Orientation;1
1;116;14;98;2;1.11594608891755;8.460816271372;124.460816271372;Sadil et al. (2022);Experiment 1;Orientation;1
1;39;77;99;2;0.939004243351519;-0.921117638435;38.078882361565;Sadil et al. (2022);Experiment 1;Orientation;1
1;18;21;100;2;1.17991807218641;6.0573494500117;24.0573494500117;Sadil et al. (2022);Experiment 1;Orientation;1
1;94;-76;101;2;1.22498648520559;-0.157546872085106;93.8424531279149;Sadil et al. (2022);Experiment 1;Orientation;1
1;110;-16;1;3;1.08645306434482;-0.374317285220997;109.625682714779;Sadil et al. (2022);Experiment 1;Orientation;1
1;168;-58;2;3;1.0454816436395;-10.285587646833;157.714412353167;Sadil et al. (2022);Experiment 1;Orientation;1
1;150;18;3;3;0.992592332884669;-10.648922048426;139.351077951574;Sadil et al. (2022);Experiment 1;Orientation;1
1;54;-84;4;3;0.923568611033261;7.7625544618328;61.7625544618328;Sadil et al. (2022);Experiment 1;Orientation;1
1;173;61;5;3;1.17669674474746;-14.876208111631;158.123791888369;Sadil et al. (2022);Experiment 1;Orientation;1
1;63;-70;6;3;0.933653977699578;1.0691935373481;64.0691935373481;Sadil et al. (2022);Experiment 1;Orientation;1
1;134;-71;7;3;1.25875851511955;-4.19442890773499;129.805571092265;Sadil et al. (2022);Experiment 1;Orientation;1
1;44;90;8;3;0.79161186888814;1.6740368979845;45.6740368979845;Sadil et al. (2022);Experiment 1;Orientation;1
1;7;37;9;3;0.686765960417688;-0.50647468746074;6.49352531253926;Sadil et al. (2022);Experiment 1;Orientation;1
1;158;29;10;3;1.24989080615342;-8.80144597613699;149.198554023863;Sadil et al. (2022);Experiment 1;Orientation;1
1;132;26;11;3;0.924700543284416;0.510447078000993;132.510447078001;Sadil et al. (2022);Experiment 1;Orientation;1
1;29;-77;12;3;0.937926643528044;9.5891599797676;38.5891599797676;Sadil et al. (2022);Experiment 1;Orientation;1
1;119;-90;13;3;1.24476541671902;1.73548770191999;120.73548770192;Sadil et al. (2022);Experiment 1;Orientation;1
1;111;8;14;3;0.933609001338482;2.412114169303;113.412114169303;Sadil et al. (2022);Experiment 1;Orientation;1
1;9;-78;15;3;1.0367582179606;6.2551187030578;15.2551187030578;Sadil et al. (2022);Experiment 1;Orientation;1
1;102;87;16;3;0.881744467653334;4.92751306414701;106.927513064147;Sadil et al. (2022);Experiment 1;Orientation;1
1;59;43;17;3;0.742792383767664;-4.874991352064;54.125008647936;Sadil et al. (2022);Experiment 1;Orientation;1
1;160;79;18;3;1.06000388227403;-10.04643524681;149.95356475319;Sadil et al. (2022);Experiment 1;Orientation;1
1;145;15;19;3;1.26103415153921;-4.74619724873801;140.253802751262;Sadil et al. (2022);Experiment 1;Orientation;1
1;89;56;20;3;0.905859756283462;1.93155659807751;90.9315565980775;Sadil et al. (2022);Experiment 1;Orientation;1
1;106;-17;21;3;0.991036906838417;-4.503436982414;101.496563017586;Sadil et al. (2022);Experiment 1;Orientation;1
1;1;-75;22;3;1.33999623917043;-1.89517371021108;179.104826289789;Sadil et al. (2022);Experiment 1;Orientation;1
1;171;10;23;3;1.05688638985157;-6.76214776397299;164.237852236027;Sadil et al. (2022);Experiment 1;Orientation;1
1;47;-56;24;3;0.829904685728252;0.400214460856603;47.4002144608566;Sadil et al. (2022);Experiment 1;Orientation;1
1;29;18;25;3;1.01315909065306;2.4487152730536;31.4487152730536;Sadil et al. (2022);Experiment 1;Orientation;1
1;79;-50;26;3;0.914202249608934;1.9806775686183;80.9806775686183;Sadil et al. (2022);Experiment 1;Orientation;1
1;91;-12;27;3;1.04130798298866;-6.2338616472164;84.7661383527836;Sadil et al. (2022);Experiment 1;Orientation;1
1;18;73;28;3;0.91434592846781;7.3879062910959;25.3879062910959;Sadil et al. (2022);Experiment 1;Orientation;1
1;87;-69;29;3;0.905509612523019;-7.03690245396351;79.9630975460365;Sadil et al. (2022);Experiment 1;Orientation;1
1;99;-12;30;3;0.888591601513326;-0.187098362255597;98.8129016377444;Sadil et al. (2022);Experiment 1;Orientation;1
1;75;24;31;3;1.08766649570316;1.8527576247305;76.8527576247305;Sadil et al. (2022);Experiment 1;Orientation;1
1;84;-9;32;3;0.89858943130821;-2.2594379798788;81.7405620201212;Sadil et al. (2022);Experiment 1;Orientation;1
1;164;-80;33;3;0.96761919092387;-10.350461245949;153.649538754051;Sadil et al. (2022);Experiment 1;Orientation;1
1;64;-80;34;3;0.914568995125592;5.64677085193119;69.6467708519312;Sadil et al. (2022);Experiment 1;Orientation;1
1;25;39;35;3;1.00564336124808;8.4325601384009;33.4325601384009;Sadil et al. (2022);Experiment 1;Orientation;1
1;17;8;36;3;1.05880946666002;9.3753307462527;26.3753307462527;Sadil et al. (2022);Experiment 1;Orientation;1
1;44;-27;37;3;0.725762386806309;4.3664606634298;48.3664606634298;Sadil et al. (2022);Experiment 1;Orientation;1
1;63;-19;38;3;0.69514256156981;3.4820383263077;66.4820383263077;Sadil et al. (2022);Experiment 1;Orientation;1
1;133;-70;39;3;0.956323109567165;-6.027237510432;126.972762489568;Sadil et al. (2022);Experiment 1;Orientation;1
1;98;35;40;3;0.927383072674274;3.12146019489001;101.12146019489;Sadil et al. (2022);Experiment 1;Orientation;1
1;19;79;41;3;0.772438444197178;3.6593520400059;22.6593520400059;Sadil et al. (2022);Experiment 1;Orientation;1
1;118;81;42;3;1.15765070077032;2.884945330729;120.884945330729;Sadil et al. (2022);Experiment 1;Orientation;1
1;45;73;43;3;1.05854897201061;-9.0047791252773;35.9952208747227;Sadil et al. (2022);Experiment 1;Orientation;1
1;36;9;44;3;0.747429079376161;5.2686030008395;41.2686030008395;Sadil et al. (2022);Experiment 1;Orientation;1
1;144;72;45;3;0.936683933250606;-2.45370921670599;141.546290783294;Sadil et al. (2022);Experiment 1;Orientation;1
1;34;-70;46;3;0.723668161779642;10.6569156004765;44.6569156004765;Sadil et al. (2022);Experiment 1;Orientation;1
1;126;88;47;3;0.892972934059799;1.38145351243099;127.381453512431;Sadil et al. (2022);Experiment 1;Orientation;1
1;7;-61;48;3;1.03411221411079;9.9092718105408;16.9092718105408;Sadil et al. (2022);Experiment 1;Orientation;1
1;33;-26;49;3;0.739087794907391;7.0302592718897;40.0302592718897;Sadil et al. (2022);Experiment 1;Orientation;1
1;25;8;50;3;0.774296323768795;6.2184027643464;31.2184027643464;Sadil et al. (2022);Experiment 1;Orientation;1
1;10;15;51;3;0.925464221276343;-4.12260739335686;5.87739260664314;Sadil et al. (2022);Experiment 1;Orientation;1
1;30;-20;52;3;0.846608685329556;9.749727270267;39.749727270267;Sadil et al. (2022);Experiment 1;Orientation;1
1;162;48;53;3;1.14770810864866;-14.275644314578;147.724355685422;Sadil et al. (2022);Experiment 1;Orientation;1
1;67;-85;54;3;1.07058639172465;-3.0211202442866;63.9788797557134;Sadil et al. (2022);Experiment 1;Orientation;1
1;94;-27;55;3;0.925594316795468;-1.3574547059353;92.6425452940647;Sadil et al. (2022);Experiment 1;Orientation;1
1;160;-66;56;3;1.19050963781774;-6.77115021446201;153.228849785538;Sadil et al. (2022);Experiment 1;Orientation;1
1;63;-83;57;3;1.26547615602613;1.6120937089041;64.6120937089041;Sadil et al. (2022);Experiment 1;Orientation;1
1;89;-26;58;3;1.19630482979119;1.93155659807751;90.9315565980775;Sadil et al. (2022);Experiment 1;Orientation;1
1;80;9;59;3;1.00731228291988;4.9427514674409;84.9427514674409;Sadil et al. (2022);Experiment 1;Orientation;1
1;5;75;60;3;0.902325411327183;6.3099324740202;11.3099324740202;Sadil et al. (2022);Experiment 1;Orientation;1
1;47;-42;61;3;0.971414031460881;9.6893691754392;56.6893691754392;Sadil et al. (2022);Experiment 1;Orientation;1
1;86;-39;62;3;1.0944891795516;4.4275725068334;90.4275725068334;Sadil et al. (2022);Experiment 1;Orientation;1
1;76;10;63;3;0.937420141883194;5.86989764584401;81.869897645844;Sadil et al. (2022);Experiment 1;Orientation;1
1;21;55;64;3;1.1425944911316;5.9958383940866;26.9958383940866;Sadil et al. (2022);Experiment 1;Orientation;1
1;4;17;65;3;0.945531418547034;-0.42366562500265;3.57633437499735;Sadil et al. (2022);Experiment 1;Orientation;1
1;91;-87;66;3;1.00452108867466;4.9644871012531;95.9644871012531;Sadil et al. (2022);Experiment 1;Orientation;1
1;147;-56;67;3;1.10552355833352;-7.13548556223901;139.864514437761;Sadil et al. (2022);Experiment 1;Orientation;1
1;91;56;68;3;1.08643404766917;5.1591630291431;96.1591630291431;Sadil et al. (2022);Experiment 1;Orientation;1
1;120;-29;69;3;1.2094850493595;4.418364479056;124.418364479056;Sadil et al. (2022);Experiment 1;Orientation;1
1;132;-12;70;3;0.944392845034599;0.380451204605009;132.380451204605;Sadil et al. (2022);Experiment 1;Orientation;1
1;67;65;71;3;0.927397560328245;3.3461759419467;70.3461759419467;Sadil et al. (2022);Experiment 1;Orientation;1
1;109;-42;72;3;1.04248760640621;8.181111085477;117.181111085477;Sadil et al. (2022);Experiment 1;Orientation;1
1;100;9;73;3;1.04945246130228;1.842076115328;101.842076115328;Sadil et al. (2022);Experiment 1;Orientation;1
1;142;-42;74;3;1.16453013196588;1.652541791115;143.652541791115;Sadil et al. (2022);Experiment 1;Orientation;1
1;93;49;75;3;1.12742599565536;-3.4212849041686;89.5787150958314;Sadil et al. (2022);Experiment 1;Orientation;1
1;90;3;76;3;0.906337583437562;-1.9920935729664;88.0079064270336;Sadil et al. (2022);Experiment 1;Orientation;1
1;14;76;77;3;0.973400195129216;7.4767909795404;21.4767909795404;Sadil et al. (2022);Experiment 1;Orientation;1
1;114;80;78;3;0.842502035200596;4.07248693585299;118.072486935853;Sadil et al. (2022);Experiment 1;Orientation;1
1;32;82;79;3;0.85165589582175;-0.448615051686499;31.5513849483135;Sadil et al. (2022);Experiment 1;Orientation;1
1;22;10;80;3;1.0008128779009;0.5838525206564;22.5838525206564;Sadil et al. (2022);Experiment 1;Orientation;1
1;19;3;81;3;0.801889210008085;8.6259628673422;27.6259628673422;Sadil et al. (2022);Experiment 1;Orientation;1
1;21;-2;82;3;0.875093535520136;11.0053832080835;32.0053832080835;Sadil et al. (2022);Experiment 1;Orientation;1
1;155;46;83;3;0.89625583961606;-9.56978003437101;145.430219965629;Sadil et al. (2022);Experiment 1;Orientation;1
1;120;35;84;3;0.993359632790089;1.57816493211401;121.578164932114;Sadil et al. (2022);Experiment 1;Orientation;1
1;176;-56;85;3;1.11632641777396;-8.38075692880699;167.619243071193;Sadil et al. (2022);Experiment 1;Orientation;1
1;72;-76;86;3;1.0891799647361;-1.34847153494739;70.6515284650526;Sadil et al. (2022);Experiment 1;Orientation;1
1;112;-40;87;3;1.08221360109746;9.250951016581;121.250951016581;Sadil et al. (2022);Experiment 1;Orientation;1
1;134;-22;88;3;1.10108940210193;-7.13010235415599;126.869897645844;Sadil et al. (2022);Experiment 1;Orientation;1
1;60;74;89;3;0.798056034371257;1.3138524262606;61.3138524262606;Sadil et al. (2022);Experiment 1;Orientation;1
1;41;19;90;3;1.02916642464697;4;45;Sadil et al. (2022);Experiment 1;Orientation;1
1;111;-70;91;3;1.19414027314633;4.26731050033899;115.267310500339;Sadil et al. (2022);Experiment 1;Orientation;1
1;115;-4;92;3;0.941122616641223;4.23281745752401;119.232817457524;Sadil et al. (2022);Experiment 1;Orientation;1
1;90;25;93;3;0.874108301475644;-10.0079798014413;79.9920201985587;Sadil et al. (2022);Experiment 1;Orientation;1
1;45;45;94;3;0.757270853966475;3.3274042417266;48.3274042417266;Sadil et al. (2022);Experiment 1;Orientation;1
1;7;38;95;3;0.870335797779262;2.53663575845941;9.53663575845941;Sadil et al. (2022);Experiment 1;Orientation;1
1;116;71;96;3;0.943424212746322;-3.963773059855;112.036226940145;Sadil et al. (2022);Experiment 1;Orientation;1
1;161;-45;97;3;1.31848107371479;8.03212781733799;169.032127817338;Sadil et al. (2022);Experiment 1;Orientation;1
1;102;59;98;3;0.939210406504571;5.327921777241;107.327921777241;Sadil et al. (2022);Experiment 1;Orientation;1
1;175;-73;99;3;1.17039354145527;-6.96205139766599;168.037948602334;Sadil et al. (2022);Experiment 1;Orientation;1
1;174;1;100;3;1.44324446283281;-5.406552583972;168.593447416028;Sadil et al. (2022);Experiment 1;Orientation;1
1;93;81;101;3;0.924007196910679;-0.137594773888196;92.8624052261118;Sadil et al. (2022);Experiment 1;Orientation;1
1;146;-53;1;4;0.978174836374819;-6.08343399399001;139.91656600601;Sadil et al. (2022);Experiment 1;Orientation;1
1;176;-30;2;4;1.03514664899558;-6.64921965924501;169.350780340755;Sadil et al. (2022);Experiment 1;Orientation;1
1;65;-69;3;4;1.16215126309544;2.9435664729606;67.9435664729606;Sadil et al. (2022);Experiment 1;Orientation;1
1;20;45;4;4;0.89901805575937;-0.182847480381;19.817152519619;Sadil et al. (2022);Experiment 1;Orientation;1
1;12;8;5;4;0.790031992830336;7.0256060375687;19.0256060375687;Sadil et al. (2022);Experiment 1;Orientation;1
1;19;-7;6;4;0.899181658402085;1.2726856133099;20.2726856133099;Sadil et al. (2022);Experiment 1;Orientation;1
1;11;8;7;4;0.962368533015251;11.0564335270394;22.0564335270394;Sadil et al. (2022);Experiment 1;Orientation;1
1;97;-86;8;4;0.99936340097338;0.224315694045302;97.2243156940453;Sadil et al. (2022);Experiment 1;Orientation;1
1;89;8;9;4;1.07639818545431;1.9391909457356;90.9391909457356;Sadil et al. (2022);Experiment 1;Orientation;1
1;47;42;10;4;0.873510942794383;-8.921117638435;38.078882361565;Sadil et al. (2022);Experiment 1;Orientation;1
1;131;-84;11;4;0.872585475444794;-4.13010235415599;126.869897645844;Sadil et al. (2022);Experiment 1;Orientation;1
1;118;13;12;4;0.829762816429138;7.065902529643;125.065902529643;Sadil et al. (2022);Experiment 1;Orientation;1
1;106;12;13;4;0.970732758753002;8.641661999558;114.641661999558;Sadil et al. (2022);Experiment 1;Orientation;1
1;175;-69;14;4;1.30181661527604;-10.47132816552;164.52867183448;Sadil et al. (2022);Experiment 1;Orientation;1
1;175;0;15;4;1.3266177047044;-8.92477322040901;166.075226779591;Sadil et al. (2022);Experiment 1;Orientation;1
1;128;47;16;4;0.98547806404531;5.636072468397;133.636072468397;Sadil et al. (2022);Experiment 1;Orientation;1
1;25;-77;17;4;1.2265431182459;5.9637565320735;30.9637565320735;Sadil et al. (2022);Experiment 1;Orientation;1
1;176;29;18;4;1.02943838946521;-12.568829179599;163.431170820401;Sadil et al. (2022);Experiment 1;Orientation;1
1;81;-85;19;4;0.924453932791948;-1.8043945975392;79.1956054024608;Sadil et al. (2022);Experiment 1;Orientation;1
1;20;61;20;4;1.01152488216758;3.025492008528;23.025492008528;Sadil et al. (2022);Experiment 1;Orientation;1
1;110;-90;21;4;0.906437797471881;7.192352164304;117.192352164304;Sadil et al. (2022);Experiment 1;Orientation;1
1;65;45;22;4;1.1936416188255;-0.740708356232801;64.2592916437672;Sadil et al. (2022);Experiment 1;Orientation;1
1;4;61;23;4;1.24259874690324;-13.385518260043;170.614481739957;Sadil et al. (2022);Experiment 1;Orientation;1
1;100;84;24;4;1.06944087613374;-4.0355128987469;95.9644871012531;Sadil et al. (2022);Experiment 1;Orientation;1
1;105;-5;25;4;1.2284667994827;5.224859431168;110.224859431168;Sadil et al. (2022);Experiment 1;Orientation;1
1;106;-1;26;4;1.03940875083208;3.160173121981;109.160173121981;Sadil et al. (2022);Experiment 1;Orientation;1
1;172;-66;27;4;1.62044680211693;-9.27174257768101;162.728257422319;Sadil et al. (2022);Experiment 1;Orientation;1
1;95;77;28;4;1.1870579989627;-6.3531919537797;88.6468080462203;Sadil et al. (2022);Experiment 1;Orientation;1
1;113;-18;29;4;0.859957638196647;5.46017599877101;118.460175998771;Sadil et al. (2022);Experiment 1;Orientation;1
1;134;-21;30;4;1.04320902470499;4.81407483429001;138.81407483429;Sadil et al. (2022);Experiment 1;Orientation;1
1;178;-44;31;4;1.09410734195262;-7.81930063875799;170.180699361242;Sadil et al. (2022);Experiment 1;Orientation;1
1;33;-35;32;4;0.813037385232747;3.4391104288354;36.4391104288354;Sadil et al. (2022);Experiment 1;Orientation;1
1;141;72;33;4;0.956237686797976;-5.29268063145599;135.707319368544;Sadil et al. (2022);Experiment 1;Orientation;1
1;13;-52;34;4;1.21932712476701;11.3045492659367;24.3045492659367;Sadil et al. (2022);Experiment 1;Orientation;1
1;27;-14;35;4;1.11418993305415;-0.0271565663563003;26.9728434336437;Sadil et al. (2022);Experiment 1;Orientation;1
1;92;-65;36;4;0.961294857785106;1.17983011986421;93.1798301198642;Sadil et al. (2022);Experiment 1;Orientation;1
1;31;61;37;4;1.00027045700699;3.3593802975894;34.3593802975894;Sadil et al. (2022);Experiment 1;Orientation;1
1;82;-51;38;4;0.985337099991739;-3.8214883406072;78.1785116593928;Sadil et al. (2022);Experiment 1;Orientation;1
1;74;8;39;4;0.734428459778428;2.209133102639;76.209133102639;Sadil et al. (2022);Experiment 1;Orientation;1
1;24;50;40;4;0.689663405530155;3.9235897151384;27.9235897151384;Sadil et al. (2022);Experiment 1;Orientation;1
1;48;-24;41;4;1.10085094161332;-4.4995470379776;43.5004529620224;Sadil et al. (2022);Experiment 1;Orientation;1
1;1;47;42;4;1.22179353050888;-7.14662565964699;173.853374340353;Sadil et al. (2022);Experiment 1;Orientation;1
1;161;20;43;4;1.3307029241696;-6.782904823021;154.217095176979;Sadil et al. (2022);Experiment 1;Orientation;1
1;144;17;44;4;0.991539786569774;-0.422283474983004;143.577716525017;Sadil et al. (2022);Experiment 1;Orientation;1
1;55;89;45;4;1.25471253599972;-1.7841255848969;53.2158744151031;Sadil et al. (2022);Experiment 1;Orientation;1
1;151;84;46;4;1.03149096015841;-2.12247019679199;148.877529803208;Sadil et al. (2022);Experiment 1;Orientation;1
1;15;-44;47;4;0.862529992125928;-3.0379486023338;11.9620513976662;Sadil et al. (2022);Experiment 1;Orientation;1
1;34;-19;48;4;1.2055450193584;4.3674853848615;38.3674853848615;Sadil et al. (2022);Experiment 1;Orientation;1
1;78;-44;49;4;1.14236538764089;5.6128829742355;83.6128829742355;Sadil et al. (2022);Experiment 1;Orientation;1
1;123;-45;50;4;1.24137686472386;4.87498365109801;127.874983651098;Sadil et al. (2022);Experiment 1;Orientation;1
1;156;-33;51;4;1.16413742676377;-8.23678655213001;147.76321344787;Sadil et al. (2022);Experiment 1;Orientation;1
1;27;-51;52;4;1.37118444498628;11.5359256806232;38.5359256806232;Sadil et al. (2022);Experiment 1;Orientation;1
1;156;51;53;4;1.5039444072172;-12.027373385104;143.972626614896;Sadil et al. (2022);Experiment 1;Orientation;1
1;32;-56;54;4;0.788732534274459;5.7249950421107;37.7249950421107;Sadil et al. (2022);Experiment 1;Orientation;1
1;126;86;55;4;1.16001900378615;0.229236717267995;126.229236717268;Sadil et al. (2022);Experiment 1;Orientation;1
1;23;-77;56;4;1.19476177915931;12.0279423126689;35.0279423126689;Sadil et al. (2022);Experiment 1;Orientation;1
1;15;8;57;4;0.983558004721999;14.0546040990771;29.0546040990771;Sadil et al. (2022);Experiment 1;Orientation;1
1;20;-5;58;4;1.38261122535914;9.9192086885575;29.9192086885575;Sadil et al. (2022);Experiment 1;Orientation;1
1;174;26;59;4;0.865466979332268;-3.54038180484301;170.459618195157;Sadil et al. (2022);Experiment 1;Orientation;1
1;75;-81;60;4;0.95656338147819;3.6900675259798;78.6900675259798;Sadil et al. (2022);Experiment 1;Orientation;1
1;26;49;61;4;1.17963705118746;1.3498757800699;27.3498757800699;Sadil et al. (2022);Experiment 1;Orientation;1
1;24;2;62;4;0.864447637461126;5.8047514731801;29.8047514731801;Sadil et al. (2022);Experiment 1;Orientation;1
1;156;48;63;4;1.17161512281746;-13.234833981575;142.765166018425;Sadil et al. (2022);Experiment 1;Orientation;1
1;151;5;64;4;1.26455098949373;-5.249033006812;145.750966993188;Sadil et al. (2022);Experiment 1;Orientation;1
1;62;89;65;4;0.80748488008976;5.209409158215;67.209409158215;Sadil et al. (2022);Experiment 1;Orientation;1
1;56;6;66;4;0.688634101301432;4.1858372622013;60.1858372622013;Sadil et al. (2022);Experiment 1;Orientation;1
1;145;-89;67;4;1.03982681129128;1.79342968491;146.79342968491;Sadil et al. (2022);Experiment 1;Orientation;1
1;67;78;68;4;0.824875584803522;-0.385221057213798;66.6147789427862;Sadil et al. (2022);Experiment 1;Orientation;1
1;51;16;69;4;0.723915979266167;5.3099324740202;56.3099324740202;Sadil et al. (2022);Experiment 1;Orientation;1
1;90;-39;70;4;0.889202542603016;4.72445169717091;94.7244516971709;Sadil et al. (2022);Experiment 1;Orientation;1
1;148;-58;71;4;0.836219357326627;-1.41658139531299;146.583418604687;Sadil et al. (2022);Experiment 1;Orientation;1
1;35;-67;72;4;0.941337835043669;11.3478872801986;46.3478872801986;Sadil et al. (2022);Experiment 1;Orientation;1
1;38;-3;73;4;0.634293504059315;5.6028189727036;43.6028189727036;Sadil et al. (2022);Experiment 1;Orientation;1
1;74;-36;74;4;0.835596040822566;-8.676863170337;65.323136829663;Sadil et al. (2022);Experiment 1;Orientation;1
1;71;3;75;4;0.818715459667146;1.6176111187721;72.6176111187721;Sadil et al. (2022);Experiment 1;Orientation;1
1;5;66;76;4;1.06184183806181;-8.44221528589699;176.557784714103;Sadil et al. (2022);Experiment 1;Orientation;1
1;150;35;77;4;1.39890833385289;-5.19390724010299;144.806092759897;Sadil et al. (2022);Experiment 1;Orientation;1
1;130;20;78;4;1.0916539169848;1.099506257618;131.099506257618;Sadil et al. (2022);Experiment 1;Orientation;1
1;145;-15;79;4;1.13057729508728;-6.987212495817;138.012787504183;Sadil et al. (2022);Experiment 1;Orientation;1
1;96;49;80;4;0.999552357941866;0.159163029143102;96.1591630291431;Sadil et al. (2022);Experiment 1;Orientation;1
1;98;-2;81;4;0.98448558524251;-5.0961811349037;92.9038188650963;Sadil et al. (2022);Experiment 1;Orientation;1
1;135;-37;82;4;1.15355340670794;-1.169139327907;133.830860672093;Sadil et al. (2022);Experiment 1;Orientation;1
1;118;17;83;4;1.01041528582573;4.399840173919;122.399840173919;Sadil et al. (2022);Experiment 1;Orientation;1
1;152;-34;84;4;0.917447121813893;-7.66500153686201;144.334998463138;Sadil et al. (2022);Experiment 1;Orientation;1
1;139;13;85;4;0.848372990265489;-8.085616779975;130.914383220025;Sadil et al. (2022);Experiment 1;Orientation;1
1;57;82;86;4;0.935506119392812;1.8846676852582;58.8846676852582;Sadil et al. (2022);Experiment 1;Orientation;1
1;83;-26;87;4;0.764568648301065;2.6012946450045;85.6012946450045;Sadil et al. (2022);Experiment 1;Orientation;1
1;88;-5;88;4;0.769922536797822;-3.3558250428552;84.6441749571448;Sadil et al. (2022);Experiment 1;Orientation;1
1;160;-72;89;4;0.963096592575312;-2.736004882581;157.263995117419;Sadil et al. (2022);Experiment 1;Orientation;1
1;148;12;90;4;0.944207509979606;0.636697786050007;148.63669778605;Sadil et al. (2022);Experiment 1;Orientation;1
1;98;50;91;4;0.833237395621836;1.9262455066517;99.9262455066517;Sadil et al. (2022);Experiment 1;Orientation;1
1;149;-51;92;4;1.34435342345387;3.65012421993001;152.65012421993;Sadil et al. (2022);Experiment 1;Orientation;1
1;81;68;93;4;0.791168150492013;-6.2551187030578;74.7448812969422;Sadil et al. (2022);Experiment 1;Orientation;1
1;78;3;94;4;0.802361301146448;-1.91687743330129;76.0831225666987;Sadil et al. (2022);Experiment 1;Orientation;1
1;130;-52;95;4;1.28148167859763;8.16036162604601;138.160361626046;Sadil et al. (2022);Experiment 1;Orientation;1
1;177;-47;96;4;1.05631257500499;-6.68878656036699;170.311213439633;Sadil et al. (2022);Experiment 1;Orientation;1
1;67;-70;97;4;1.07124593202025;-5.9741325515502;61.0258674484498;Sadil et al. (2022);Experiment 1;Orientation;1
1;46;21;98;4;0.792247561737895;-1.3472428970858;44.6527571029142;Sadil et al. (2022);Experiment 1;Orientation;1
1;170;56;99;4;1.18544069491327;-2.994616791917;167.005383208083;Sadil et al. (2022);Experiment 1;Orientation;1
1;178;-8;100;4;1.134357647039;-1.576334374997;176.423665625003;Sadil et al. (2022);Experiment 1;Orientation;1
1;140;38;101;4;1.35336058586836;5.51262716992099;145.512627169921;Sadil et al. (2022);Experiment 1;Orientation;1
1;107;33;1;5;0.909110062755644;4.297354049034;111.297354049034;Sadil et al. (2022);Experiment 1;Orientation;1
1;1;-74;2;5;1.03027239721268;4.75456533110219;5.75456533110219;Sadil et al. (2022);Experiment 1;Orientation;1
1;119;62;3;5;0.839229694567621;-3.495860513186;115.504139486814;Sadil et al. (2022);Experiment 1;Orientation;1
1;9;-70;4;5;1.02040043845773;5.6973192795119;14.6973192795119;Sadil et al. (2022);Experiment 1;Orientation;1
1;87;-78;5;5;0.973300584591925;0.3369992339329;87.3369992339329;Sadil et al. (2022);Experiment 1;Orientation;1
1;159;-72;6;5;1.12037058547139;-1.94893728092299;157.051062719077;Sadil et al. (2022);Experiment 1;Orientation;1
1;34;-55;7;5;0.833366889506578;0.695153531233998;34.695153531234;Sadil et al. (2022);Experiment 1;Orientation;1
1;5;29;8;5;1.04447739291936;-4.47914362549804;0.520856374501958;Sadil et al. (2022);Experiment 1;Orientation;1
1;25;-20;9;5;0.769456784240901;-1.1813495002662;23.8186504997338;Sadil et al. (2022);Experiment 1;Orientation;1
1;174;31;10;5;0.976642954163253;-4.140793146113;169.859206853887;Sadil et al. (2022);Experiment 1;Orientation;1
1;33;-39;11;5;0.93370770663023;-1.768090451483;31.231909548517;Sadil et al. (2022);Experiment 1;Orientation;1
1;87;-54;12;5;1.056745425798;-1.4326684686898;85.5673315313102;Sadil et al. (2022);Experiment 1;Orientation;1
1;115;-28;13;5;0.943786129355431;4.744881296942;119.744881296942;Sadil et al. (2022);Experiment 1;Orientation;1
1;88;27;14;5;0.93682187795639;-5.1250163489018;82.8749836510982;Sadil et al. (2022);Experiment 1;Orientation;1
1;112;-24;15;5;1.02592034451663;0.655232708680003;112.65523270868;Sadil et al. (2022);Experiment 1;Orientation;1
1;115;-3;16;5;1.28089277166873;11.253837737445;126.253837737445;Sadil et al. (2022);Experiment 1;Orientation;1
1;85;30;17;5;1.04767698887736;4.0371363743638;89.0371363743638;Sadil et al. (2022);Experiment 1;Orientation;1
1;83;2;18;5;0.9546128353104;-1.8520040993894;81.1479959006106;Sadil et al. (2022);Experiment 1;Orientation;1
1;145;-62;19;5;1.09164727572352;4.834992194259;149.834992194259;Sadil et al. (2022);Experiment 1;Orientation;1
1;63;82;20;5;0.908662723377347;-2.4071890607337;60.5928109392663;Sadil et al. (2022);Experiment 1;Orientation;1
1;132;-69;21;5;1.03392084129155;-0.289242678492002;131.710757321508;Sadil et al. (2022);Experiment 1;Orientation;1
1;67;65;22;5;1.28666623029858;0.100133471534406;67.1001334715344;Sadil et al. (2022);Experiment 1;Orientation;1
1;68;-1;23;5;0.823569788597524;-3.9533757023642;64.0466242976358;Sadil et al. (2022);Experiment 1;Orientation;1
1;108;-40;24;5;0.99266960658133;11.140633733394;119.140633733394;Sadil et al. (2022);Experiment 1;Orientation;1
1;129;-21;25;5;1.37169758696109;9.16036162604601;138.160361626046;Sadil et al. (2022);Experiment 1;Orientation;1
1;15;-66;26;5;1.06050977949053;0.69492414342;15.69492414342;Sadil et al. (2022);Experiment 1;Orientation;1
1;45;-30;27;5;0.867472461424768;4.0377106209771;49.0377106209771;Sadil et al. (2022);Experiment 1;Orientation;1
1;101;-56;28;5;1.00645357556641;3.582942329484;104.582942329484;Sadil et al. (2022);Experiment 1;Orientation;1
1;162;-61;29;5;1.21959094051272;-7.76932762433901;154.230672375661;Sadil et al. (2022);Experiment 1;Orientation;1
1;40;-58;30;5;1.19831846095622;2.4831243430605;42.4831243430605;Sadil et al. (2022);Experiment 1;Orientation;1
1;69;-29;31;5;0.931333968415856;-9.808903450976;59.191096549024;Sadil et al. (2022);Experiment 1;Orientation;1
1;176;73;32;5;1.16245522536337;-3.707485722965;172.292514277035;Sadil et al. (2022);Experiment 1;Orientation;1
1;48;-52;33;5;1.029356286861;-1.4349309144077;46.5650690855923;Sadil et al. (2022);Experiment 1;Orientation;1
1;154;74;34;5;1.08235878963023;-3.63153667820399;150.368463321796;Sadil et al. (2022);Experiment 1;Orientation;1
1;153;1;35;5;1.15128320455551;-5.37177808261001;147.62822191739;Sadil et al. (2022);Experiment 1;Orientation;1
1;175;-22;36;5;0.832242200151086;-11.015439606266;163.984560393734;Sadil et al. (2022);Experiment 1;Orientation;1
1;112;63;37;5;0.923357015475631;-6.248826336547;105.751173663453;Sadil et al. (2022);Experiment 1;Orientation;1
1;24;88;38;5;1.0084233880043;9.5788137250007;33.5788137250007;Sadil et al. (2022);Experiment 1;Orientation;1
1;172;32;39;5;1.08545756805688;-2.459909092929;169.540090907071;Sadil et al. (2022);Experiment 1;Orientation;1
1;6;-14;40;5;1.27234804164618;2.48894388050472;8.48894388050472;Sadil et al. (2022);Experiment 1;Orientation;1
1;6;0;41;5;1.09728520363569;5.475526751423;11.475526751423;Sadil et al. (2022);Experiment 1;Orientation;1
1;67;-61;42;5;0.912315997295082;-1.3410899366925;65.6589100633075;Sadil et al. (2022);Experiment 1;Orientation;1
1;171;76;43;5;0.953414496034384;-11.339222112652;159.660777887348;Sadil et al. (2022);Experiment 1;Orientation;1
1;32;-41;44;5;0.828455509617925;-0.2985703304943;31.7014296695057;Sadil et al. (2022);Experiment 1;Orientation;1
1;123;89;45;5;0.965678606182337;0.310630824561002;123.310630824561;Sadil et al. (2022);Experiment 1;Orientation;1
1;97;26;46;5;0.978668056428432;-5.4088597288054;91.5911402711946;Sadil et al. (2022);Experiment 1;Orientation;1
1;5;-88;47;5;0.939724756404758;0.41702211385661;5.41702211385661;Sadil et al. (2022);Experiment 1;Orientation;1
1;41;-36;48;5;0.758760778233409;-1.2578091689547;39.7421908310453;Sadil et al. (2022);Experiment 1;Orientation;1
1;94;-53;49;5;0.897927477024496;2.58194465517801;96.581944655178;Sadil et al. (2022);Experiment 1;Orientation;1
1;18;76;50;5;0.834981779567897;6.0107990638996;24.0107990638996;Sadil et al. (2022);Experiment 1;Orientation;1
1;157;41;51;5;1.02804354764521;-0.385221057214011;156.614778942786;Sadil et al. (2022);Experiment 1;Orientation;1
1;90;67;52;5;0.849143308587372;-7.0227938355732;82.9772061644268;Sadil et al. (2022);Experiment 1;Orientation;1
1;9;81;53;5;0.928256622515619;0.53012783259995;9.53012783259995;Sadil et al. (2022);Experiment 1;Orientation;1
1;160;29;54;5;0.973350691609085;-3.732939804072;156.267060195928;Sadil et al. (2022);Experiment 1;Orientation;1
1;171;-11;55;5;0.892342673614621;-9.285351827319;161.714648172681;Sadil et al. (2022);Experiment 1;Orientation;1
1;173;-2;56;5;0.873489813879132;-8.875946505223;164.124053494777;Sadil et al. (2022);Experiment 1;Orientation;1
1;108;65;57;5;1.09666339494288;3.64443514071399;111.644435140714;Sadil et al. (2022);Experiment 1;Orientation;1
1;89;19;58;5;1.105658181943;0.6048629574925;89.6048629574925;Sadil et al. (2022);Experiment 1;Orientation;1
1;81;8;59;5;1.05261855199933;-4.3351063410459;76.6648936589541;Sadil et al. (2022);Experiment 1;Orientation;1
1;94;-13;60;5;0.923559858463705;-0.00908690157019976;93.9909130984298;Sadil et al. (2022);Experiment 1;Orientation;1
1;14;80;61;5;0.914640835486352;8.5838525206564;22.5838525206564;Sadil et al. (2022);Experiment 1;Orientation;1
1;108;86;62;5;0.907790078781545;-0.758540601060005;107.24145939894;Sadil et al. (2022);Experiment 1;Orientation;1
1;168;-60;63;5;1.2988086938858;-4.07357416474599;163.926425835254;Sadil et al. (2022);Experiment 1;Orientation;1
1;152;16;64;5;0.919902659952641;-7.24203655865199;144.757963441348;Sadil et al. (2022);Experiment 1;Orientation;1
1;96;56;65;5;1.07072765752673;-0.847918297793797;95.1520817022062;Sadil et al. (2022);Experiment 1;Orientation;1
1;6;90;66;5;1.07776163611561;2.55183023382006;8.55183023382006;Sadil et al. (2022);Experiment 1;Orientation;1
1;87;-81;67;5;1.0686705596745;-5.37867250621559;81.6213274937844;Sadil et al. (2022);Experiment 1;Orientation;1
1;149;-62;68;5;1.05767119582742;-8.045892568835;140.954107431165;Sadil et al. (2022);Experiment 1;Orientation;1
1;122;27;69;5;0.922611751593649;-2.524110996754;119.475889003246;Sadil et al. (2022);Experiment 1;Orientation;1
1;83;39;70;5;1.04576085321605;-8.0183606311507;74.9816393688493;Sadil et al. (2022);Experiment 1;Orientation;1
1;168;-85;71;5;1.11081647314131;-5.592424562182;162.407575437818;Sadil et al. (2022);Experiment 1;Orientation;1
1;171;-3;72;5;1.22376490291208;-7.56882917959899;163.431170820401;Sadil et al. (2022);Experiment 1;Orientation;1
1;21;-30;73;5;1.17861106712371;7.790975072192;28.790975072192;Sadil et al. (2022);Experiment 1;Orientation;1
1;31;-10;74;5;0.893467362970114;14;45;Sadil et al. (2022);Experiment 1;Orientation;1
1;75;-44;75;5;1.04649947676808;0.768541684357402;75.7685416843574;Sadil et al. (2022);Experiment 1;Orientation;1
1;141;-66;76;5;0.981540749780834;3.46232220802599;144.462322208026;Sadil et al. (2022);Experiment 1;Orientation;1
1;72;69;77;5;0.954573897644877;-4.0942303415828;67.9057696584172;Sadil et al. (2022);Experiment 1;Orientation;1
1;40;32;78;5;1.26963170617819;2.5104470780009;42.5104470780009;Sadil et al. (2022);Experiment 1;Orientation;1
1;47;-7;79;5;1.23647031467408;-1.6569156004765;45.3430843995235;Sadil et al. (2022);Experiment 1;Orientation;1
1;168;59;80;5;1.27532970160246;-3.88013877707499;164.119861222925;Sadil et al. (2022);Experiment 1;Orientation;1
1;55;-67;81;5;1.00411419663578;-0.417055276467401;54.5829447235326;Sadil et al. (2022);Experiment 1;Orientation;1
1;110;-55;82;5;1.1251198714599;3.749494492867;113.749494492867;Sadil et al. (2022);Experiment 1;Orientation;1
1;3;-73;83;5;1.4519772445783;-5.862405226112;177.137594773888;Sadil et al. (2022);Experiment 1;Orientation;1
1;81;-78;84;5;1.19472736865282;-1.56801420900931;79.4319857909907;Sadil et al. (2022);Experiment 1;Orientation;1
1;174;87;85;5;1.44360456801951;-3.92624550665201;170.073754493348;Sadil et al. (2022);Experiment 1;Orientation;1
1;79;-85;86;5;1.0984382648021;-1.82439810223509;77.1756018977649;Sadil et al. (2022);Experiment 1;Orientation;1
1;59;20;87;5;0.87135212123394;4.8456642216871;63.8456642216871;Sadil et al. (2022);Experiment 1;Orientation;1
1;117;-58;88;5;1.1644942117855;16.619645926556;133.619645926556;Sadil et al. (2022);Experiment 1;Orientation;1
1;160;-43;89;5;0.965371323749423;-5.89364699422799;154.106353005772;Sadil et al. (2022);Experiment 1;Orientation;1
1;64;-84;90;5;0.912416513077915;2.2973540490338;66.2973540490338;Sadil et al. (2022);Experiment 1;Orientation;1
1;116;-52;91;5;1.44955309852958;4.73548770191999;120.73548770192;Sadil et al. (2022);Experiment 1;Orientation;1
1;123;-7;92;5;1.14616475719959;-1.96489135099699;121.035108649003;Sadil et al. (2022);Experiment 1;Orientation;1
1;21;-78;93;5;0.979189047589898;5.565051177078;26.565051177078;Sadil et al. (2022);Experiment 1;Orientation;1
1;105;-84;94;5;1.03613158036023;2.071021291319;107.071021291319;Sadil et al. (2022);Experiment 1;Orientation;1
1;2;-77;95;5;0.983324071392417;1.12213046211571;3.12213046211571;Sadil et al. (2022);Experiment 1;Orientation;1
1;15;-13;96;5;0.962317219004035;6.3886228278188;21.3886228278188;Sadil et al. (2022);Experiment 1;Orientation;1
1;20;-5;97;5;1.23739638738334;0.714174844348701;20.7141748443487;Sadil et al. (2022);Experiment 1;Orientation;1
1;24;-4;98;5;1.16627783514559;1.7552707601671;25.7552707601671;Sadil et al. (2022);Experiment 1;Orientation;1
1;112;-88;99;5;1.03328786510974;-2.31667245355899;109.683327546441;Sadil et al. (2022);Experiment 1;Orientation;1
1;125;-13;100;5;0.866165457293391;1.422283474983;126.422283474983;Sadil et al. (2022);Experiment 1;Orientation;1
1;124;1;101;5;0.895342747680843;-2.55128472694599;121.448715273054;Sadil et al. (2022);Experiment 1;Orientation;1
1;16;-72;1;6;1.15731262974441;2.0041616059134;18.0041616059134;Sadil et al. (2022);Experiment 1;Orientation;1
1;58;-42;2;6;0.844251247122884;10.7494944928668;68.7494944928668;Sadil et al. (2022);Experiment 1;Orientation;1
1;158;80;3;6;1.13139470107853;-7.23281745752399;150.767182542476;Sadil et al. (2022);Experiment 1;Orientation;1
1;32;-54;4;6;0.920295665971935;13;45;Sadil et al. (2022);Experiment 1;Orientation;1
1;172;40;5;6;0.8253621654585;-8.172159015783;163.827840984217;Sadil et al. (2022);Experiment 1;Orientation;1
1;74;-82;6;6;0.936542366631329;-3.34847153494739;70.6515284650526;Sadil et al. (2022);Experiment 1;Orientation;1
1;83;-9;7;6;0.917624005116522;-6.6269948598915;76.3730051401085;Sadil et al. (2022);Experiment 1;Orientation;1
1;162;-79;8;6;0.958516946062446;-7.85186254205999;154.14813745794;Sadil et al. (2022);Experiment 1;Orientation;1
1;130;32;9;6;0.977782734669745;-2.16723872852;127.83276127148;Sadil et al. (2022);Experiment 1;Orientation;1
1;63;67;10;6;0.932707984000444;0.860931899565202;63.8609318995652;Sadil et al. (2022);Experiment 1;Orientation;1
1;126;-63;11;6;1.04773373529315;0.573030978519;126.573030978519;Sadil et al. (2022);Experiment 1;Orientation;1
1;133;-7;12;6;0.872823633253574;5.76852970913501;138.768529709135;Sadil et al. (2022);Experiment 1;Orientation;1
1;57;76;13;6;1.19801208563149;1.4830600274053;58.4830600274053;Sadil et al. (2022);Experiment 1;Orientation;1
1;142;-85;14;6;0.872840537689626;0.815293546767009;142.815293546767;Sadil et al. (2022);Experiment 1;Orientation;1
1;103;39;15;6;0.878050142899156;-6.2338251774469;96.7661748225531;Sadil et al. (2022);Experiment 1;Orientation;1
1;72;31;16;6;0.979152825661004;-3.2973540490338;68.7026459509662;Sadil et al. (2022);Experiment 1;Orientation;1
1;100;-28;17;6;0.900188625790179;1.222458069445;101.222458069445;Sadil et al. (2022);Experiment 1;Orientation;1
1;146;-46;18;6;1.05729297921062;1.26477372789199;147.264773727892;Sadil et al. (2022);Experiment 1;Orientation;1
1;63;83;19;6;0.930274781771004;-2.9315118405078;60.0684881594922;Sadil et al. (2022);Experiment 1;Orientation;1
1;134;-71;20;6;1.09147401433438;-3.95544894005201;130.044551059948;Sadil et al. (2022);Experiment 1;Orientation;1
1;72;62;21;6;0.910436989739537;1.5295715603914;73.5295715603914;Sadil et al. (2022);Experiment 1;Orientation;1
1;117;-45;22;6;0.861731301061809;-4.14123812013401;112.858761879866;Sadil et al. (2022);Experiment 1;Orientation;1
1;29;88;23;6;0.854610088281333;6.8376529542783;35.8376529542783;Sadil et al. (2022);Experiment 1;Orientation;1
1;22;7;24;6;0.953681330196559;1.6579969987627;23.6579969987627;Sadil et al. (2022);Experiment 1;Orientation;1
1;114;88;25;6;1.04264215286821;0.00714662688599788;114.007146626886;Sadil et al. (2022);Experiment 1;Orientation;1
1;13;-79;26;6;0.917686185799539;3.2796732021305;16.2796732021305;Sadil et al. (2022);Experiment 1;Orientation;1
1;157;36;27;6;1.11076395120472;-1.74353782547701;155.256462174523;Sadil et al. (2022);Experiment 1;Orientation;1
1;63;-86;28;6;0.879801167175174;5.28235621348971;68.2823562134897;Sadil et al. (2022);Experiment 1;Orientation;1
1;72;-9;29;6;0.800885563716292;-2.5014258085662;69.4985741914338;Sadil et al. (2022);Experiment 1;Orientation;1
1;179;73;30;6;0.832058979198337;-2.691385986451;176.308614013549;Sadil et al. (2022);Experiment 1;Orientation;1
1;124;55;31;6;1.1591925425455;-1.09475707701201;122.905242922988;Sadil et al. (2022);Experiment 1;Orientation;1
1;83;41;32;6;0.847962778992951;1.0428688852918;84.0428688852918;Sadil et al. (2022);Experiment 1;Orientation;1
1;112;-29;33;6;0.871191538870335;6.07248693585299;118.072486935853;Sadil et al. (2022);Experiment 1;Orientation;1
1;102;10;34;6;0.72624534368515;8.937285274275;110.937285274275;Sadil et al. (2022);Experiment 1;Orientation;1
1;86;16;35;6;1.09347979910672;7.25722194066699;93.257221940667;Sadil et al. (2022);Experiment 1;Orientation;1
1;115;-29;36;6;0.764539368450642;-7.790442479452;107.209557520548;Sadil et al. (2022);Experiment 1;Orientation;1
1;172;-57;37;6;0.879717553965747;-7.724745722747;164.275254277253;Sadil et al. (2022);Experiment 1;Orientation;1
1;86;86;38;6;0.86278626229614;-1.31454566994471;84.6854543300553;Sadil et al. (2022);Experiment 1;Orientation;1
1;121;-35;39;6;0.809934079647064;-3.959476090474;117.040523909526;Sadil et al. (2022);Experiment 1;Orientation;1
1;64;57;40;6;0.859119405038655;-0.565051177077997;63.434948822922;Sadil et al. (2022);Experiment 1;Orientation;1
1;23;41;41;6;0.742297351360321;3.565051177078;26.565051177078;Sadil et al. (2022);Experiment 1;Orientation;1
1;50;-27;42;6;0.729438299313188;12.5432577154001;62.5432577154001;Sadil et al. (2022);Experiment 1;Orientation;1
1;93;-43;43;6;0.850582824088633;-2.1574757392596;90.8425242607404;Sadil et al. (2022);Experiment 1;Orientation;1
1;143;-50;44;6;0.909784090705216;-4.63353933657001;138.36646066343;Sadil et al. (2022);Experiment 1;Orientation;1
1;41;-78;45;6;0.62883819360286;12.027237510432;53.027237510432;Sadil et al. (2022);Experiment 1;Orientation;1
1;139;82;46;6;0.862285797484219;-13.405311500957;125.594688499043;Sadil et al. (2022);Experiment 1;Orientation;1
1;19;-60;47;6;0.699334937147796;14.2470677493359;33.2470677493359;Sadil et al. (2022);Experiment 1;Orientation;1
1;64;-45;48;6;0.854474256746471;0.340735483032603;64.3407354830326;Sadil et al. (2022);Experiment 1;Orientation;1
1;178;66;49;6;0.921691414900124;-12.2725133844;165.7274866156;Sadil et al. (2022);Experiment 1;Orientation;1
1;4;-6;50;6;0.872855931520462;-4.86152573456727;179.138474265433;Sadil et al. (2022);Experiment 1;Orientation;1
1;52;-48;51;6;0.703928167931736;-3.2277163906202;48.7722836093798;Sadil et al. (2022);Experiment 1;Orientation;1
1;124;-72;52;6;0.869074674323201;-6.840204307703;117.159795692297;Sadil et al. (2022);Experiment 1;Orientation;1
1;94;30;53;6;0.764202807098627;-0.987212495816607;93.0127875041834;Sadil et al. (2022);Experiment 1;Orientation;1
1;118;-24;54;6;1.02145721018314;-1.845664221687;116.154335778313;Sadil et al. (2022);Experiment 1;Orientation;1
1;82;36;55;6;0.782444726675749;1.8844964337146;83.8844964337146;Sadil et al. (2022);Experiment 1;Orientation;1
1;178;84;56;6;1.01958242803812;0.327605638910995;178.327605638911;Sadil et al. (2022);Experiment 1;Orientation;1
1;172;6;57;6;1.04268350638449;-11.411486858684;160.588513141316;Sadil et al. (2022);Experiment 1;Orientation;1
1;173;-1;58;6;0.975849998183548;-4.94417718844599;168.055822811554;Sadil et al. (2022);Experiment 1;Orientation;1
1;34;-41;59;6;0.866737460717559;14.8937075550971;48.8937075550971;Sadil et al. (2022);Experiment 1;Orientation;1
1;77;-43;60;6;0.953935185447335;2.7651972365768;79.7651972365768;Sadil et al. (2022);Experiment 1;Orientation;1
1;94;-17;61;6;0.959036426618695;-0.682218831665097;93.3177811683349;Sadil et al. (2022);Experiment 1;Orientation;1
1;177;-83;62;6;0.782007046043873;-2.9245819819825;174.075418018018;Sadil et al. (2022);Experiment 1;Orientation;1
1;134;43;63;6;0.851236326619983;-4.072132872514;129.927867127486;Sadil et al. (2022);Experiment 1;Orientation;1
1;72;62;64;6;0.798347318544984;1.34215444342141;73.3421544434214;Sadil et al. (2022);Experiment 1;Orientation;1
1;93;-21;65;6;0.739542681723833;1.8034857590691;94.8034857590691;Sadil et al. (2022);Experiment 1;Orientation;1
1;39;54;66;6;0.826760630123317;4.0908475670036;43.0908475670036;Sadil et al. (2022);Experiment 1;Orientation;1
1;167;52;67;6;0.80592492595315;-3.20377421489101;163.796225785109;Sadil et al. (2022);Experiment 1;Orientation;1
1;126;41;68;6;0.922987251542509;-8.00794695540699;117.992053044593;Sadil et al. (2022);Experiment 1;Orientation;1
1;107;19;69;6;0.874158710241318;0.241459398939995;107.24145939894;Sadil et al. (2022);Experiment 1;Orientation;1
1;34;73;70;6;0.807150733657181;-1.0721373468359;32.9278626531641;Sadil et al. (2022);Experiment 1;Orientation;1
1;17;17;71;6;0.974255030043423;12.6831401791233;29.6831401791233;Sadil et al. (2022);Experiment 1;Orientation;1
1;140;57;72;6;1.30139161273837;-4.06080905426401;135.939190945736;Sadil et al. (2022);Experiment 1;Orientation;1
1;169;-29;73;6;1.03219698369503;-2.535856369134;166.464143630866;Sadil et al. (2022);Experiment 1;Orientation;1
1;161;8;74;6;0.895173108205199;-8.42335070710999;152.57664929289;Sadil et al. (2022);Experiment 1;Orientation;1
1;97;64;75;6;0.798219032585621;-2.2001638860953;94.7998361139047;Sadil et al. (2022);Experiment 1;Orientation;1
1;161;-64;76;6;1.19745849538594;0.722890390780009;161.72289039078;Sadil et al. (2022);Experiment 1;Orientation;1
1;30;-49;77;6;0.832325511611998;-2.2814983718166;27.7185016281834;Sadil et al. (2022);Experiment 1;Orientation;1
1;130;80;78;6;0.857552810572088;-2.43140797117201;127.568592028828;Sadil et al. (2022);Experiment 1;Orientation;1
1;9;-59;79;6;1.03253143187612;6.7621477639726;15.7621477639726;Sadil et al. (2022);Experiment 1;Orientation;1
1;174;15;80;6;0.895752355456352;-9.75117366345299;164.248826336547;Sadil et al. (2022);Experiment 1;Orientation;1
1;124;50;81;6;0.856827770359814;0.508522987668002;124.508522987668;Sadil et al. (2022);Experiment 1;Orientation;1
1;169;-45;82;6;1.24199686106294;-19.04643524681;149.95356475319;Sadil et al. (2022);Experiment 1;Orientation;1
1;127;42;83;6;0.814895262941718;-6.489762593884;120.510237406116;Sadil et al. (2022);Experiment 1;Orientation;1
1;70;57;84;6;0.922107059508562;-2.1803443020172;67.8196556979828;Sadil et al. (2022);Experiment 1;Orientation;1
1;58;12;85;6;0.661178253591061;-2.6159793123798;55.3840206876202;Sadil et al. (2022);Experiment 1;Orientation;1
1;7;51;86;6;0.828501089476049;-0.60950468535302;6.39049531464698;Sadil et al. (2022);Experiment 1;Orientation;1
1;152;35;87;6;0.855662937276065;-10.589159979768;141.410840020232;Sadil et al. (2022);Experiment 1;Orientation;1
1;64;88;88;6;0.808784941211343;5.3045492659367;69.3045492659367;Sadil et al. (2022);Experiment 1;Orientation;1
1;62;2;89;6;0.925986418500543;-0.610459665965202;61.3895403340348;Sadil et al. (2022);Experiment 1;Orientation;1
1;153;89;90;6;0.801048561930656;-11.897220346344;141.102779653656;Sadil et al. (2022);Experiment 1;Orientation;1
1;106;47;91;6;0.928179046139121;2.586926661486;108.586926661486;Sadil et al. (2022);Experiment 1;Orientation;1
1;108;-2;92;6;0.657274747267365;-1.810793742973;106.189206257027;Sadil et al. (2022);Experiment 1;Orientation;1
1;131;-23;93;6;0.824476239271462;-1.01311375503599;129.986886244964;Sadil et al. (2022);Experiment 1;Orientation;1
1;113;18;94;6;0.791914320550859;2.85186254206;115.85186254206;Sadil et al. (2022);Experiment 1;Orientation;1
1;167;-54;95;6;1.31092248298228;-7.78824568902999;159.21175431097;Sadil et al. (2022);Experiment 1;Orientation;1
1;144;23;96;6;0.739678211510181;-6.87890360333901;137.121096396661;Sadil et al. (2022);Experiment 1;Orientation;1
1;9;-45;97;6;0.816800833679736;2.888658039628;11.888658039628;Sadil et al. (2022);Experiment 1;Orientation;1
1;13;-4;98;6;0.752025631256402;8.9605640200965;21.9605640200965;Sadil et al. (2022);Experiment 1;Orientation;1
1;111;82;99;6;0.831107250414789;-2.72289039077999;108.27710960922;Sadil et al. (2022);Experiment 1;Orientation;1
1;178;-67;100;6;1.14233761839569;5.48327146899766;3.48327146899767;Sadil et al. (2022);Experiment 1;Orientation;1
1;71;-73;101;6;0.769271449185908;1.4991387310472;72.4991387310472;Sadil et al. (2022);Experiment 1;Orientation;1
1;105;-34;1;7;0.844994097016752;-3.511018797841;101.488981202159;Sadil et al. (2022);Experiment 1;Orientation;1
1;68;37;2;7;0.624298390932381;-5.7185016281833;62.2814983718167;Sadil et al. (2022);Experiment 1;Orientation;1
1;102;-34;3;7;0.935516685247421;0.750025835816004;102.750025835816;Sadil et al. (2022);Experiment 1;Orientation;1
1;119;-17;4;7;0.722587240859866;-3.3063003406;115.6936996594;Sadil et al. (2022);Experiment 1;Orientation;1
1;157;-38;5;7;0.779820152558386;-8.130313561495;148.869686438505;Sadil et al. (2022);Experiment 1;Orientation;1
1;172;-15;6;7;1.01698471885175;-10.7117378751;161.2882621249;Sadil et al. (2022);Experiment 1;Orientation;1
1;21;-29;7;7;0.980010679922998;-1.8398268780187;19.1601731219813;Sadil et al. (2022);Experiment 1;Orientation;1
1;134;67;8;7;0.853085451759398;-5.61798728798701;128.382012712013;Sadil et al. (2022);Experiment 1;Orientation;1
1;138;-4;9;7;1.14211907982826;-3.33118578841501;134.668814211585;Sadil et al. (2022);Experiment 1;Orientation;1
1;78;60;10;7;0.803038951009512;-5.969139740157;72.030860259843;Sadil et al. (2022);Experiment 1;Orientation;1
1;176;82;11;7;1.1162014529109;-6.93909118319201;169.060908816808;Sadil et al. (2022);Experiment 1;Orientation;1
1;160;16;12;7;0.963235140778124;-3.37416436504799;156.625835634952;Sadil et al. (2022);Experiment 1;Orientation;1
1;4;-24;13;7;0.918204761110246;2.84277341263094;6.84277341263094;Sadil et al. (2022);Experiment 1;Orientation;1
1;141;43;14;7;1.21546074561775;3.574227885092;144.574227885092;Sadil et al. (2022);Experiment 1;Orientation;1
1;118;23;15;7;0.870306517928839;-7.820541335489;110.179458664511;Sadil et al. (2022);Experiment 1;Orientation;1
1;65;53;16;7;0.933427288196981;4.2539197243166;69.2539197243166;Sadil et al. (2022);Experiment 1;Orientation;1
1;146;-81;17;7;1.11056744772941;-9.712671058475;136.287328941525;Sadil et al. (2022);Experiment 1;Orientation;1
1;93;53;18;7;0.961504340171814;-5.25457496593501;87.745425034065;Sadil et al. (2022);Experiment 1;Orientation;1
1;115;-22;19;7;1.03654300048947;3.33045808554;118.33045808554;Sadil et al. (2022);Experiment 1;Orientation;1
1;137;-22;20;7;0.921666360460222;0.337305859124001;137.337305859124;Sadil et al. (2022);Experiment 1;Orientation;1
1;131;6;21;7;0.892692818306386;3.660975675549;134.660975675549;Sadil et al. (2022);Experiment 1;Orientation;1
1;97;34;22;7;0.787838760763407;-1.07937928595319;95.9206207140468;Sadil et al. (2022);Experiment 1;Orientation;1
1;112;-15;23;7;1.01297315210104;-5.30075576600601;106.699244233994;Sadil et al. (2022);Experiment 1;Orientation;1
1;81;31;24;7;0.953950881026685;0.869897645844006;81.869897645844;Sadil et al. (2022);Experiment 1;Orientation;1
1;125;-44;25;7;0.953022092580795;0.197503284755001;125.197503284755;Sadil et al. (2022);Experiment 1;Orientation;1
1;123;2;26;7;0.956282057799399;-1.20108717570599;121.798912824294;Sadil et al. (2022);Experiment 1;Orientation;1
1;141;-18;27;7;0.847311690449715;-3.41420565757599;137.585794342424;Sadil et al. (2022);Experiment 1;Orientation;1
1;72;69;28;7;1.11839740071446;-4.4258619213518;67.5741380786482;Sadil et al. (2022);Experiment 1;Orientation;1
1;132;-60;29;7;1.04533464275301;1.30535293146301;133.305352931463;Sadil et al. (2022);Experiment 1;Orientation;1
1;91;41;30;7;1.00240030046552;-1.97102193107921;89.0289780689208;Sadil et al. (2022);Experiment 1;Orientation;1
1;123;-32;31;7;1.23146898578852;10.585576788598;133.585576788598;Sadil et al. (2022);Experiment 1;Orientation;1
1;45;78;32;7;0.816297048702836;-7.0379407631847;37.9620592368153;Sadil et al. (2022);Experiment 1;Orientation;1
1;111;-66;33;7;0.935446354560554;2.325350880976;113.325350880976;Sadil et al. (2022);Experiment 1;Orientation;1
1;24;87;34;7;0.996373892761767;3.0126653479385;27.0126653479385;Sadil et al. (2022);Experiment 1;Orientation;1
1;90;-66;35;7;0.903511073440313;1.0139787227853;91.0139787227853;Sadil et al. (2022);Experiment 1;Orientation;1
1;34;56;36;7;0.838525783270597;1.9867956443573;35.9867956443573;Sadil et al. (2022);Experiment 1;Orientation;1
1;83;-49;37;7;1.03974018059671;1.4995885297981;84.4995885297981;Sadil et al. (2022);Experiment 1;Orientation;1
1;154;-71;38;7;1.06285665370524;-12.130007691786;141.869992308214;Sadil et al. (2022);Experiment 1;Orientation;1
1;163;-9;39;7;0.991722707636654;-9.104854009099;153.895145990901;Sadil et al. (2022);Experiment 1;Orientation;1
1;4;-21;40;7;0.848800106905401;6.7842978675626;10.7842978675626;Sadil et al. (2022);Experiment 1;Orientation;1
1;128;56;41;7;0.933934395201504;-4.920738539922;123.079261460078;Sadil et al. (2022);Experiment 1;Orientation;1
1;98;30;42;7;0.91100537031889;-1.8999400396783;96.1000599603217;Sadil et al. (2022);Experiment 1;Orientation;1
1;82;16;43;7;0.960126100108027;4.98721249581661;86.9872124958166;Sadil et al. (2022);Experiment 1;Orientation;1
1;101;-19;44;7;1.41510311607271;-11.8184554616886;89.1815445383114;Sadil et al. (2022);Experiment 1;Orientation;1
1;158;-57;45;7;1.05785471946001;-7.38415712595099;150.615842874049;Sadil et al. (2022);Experiment 1;Orientation;1
1;21;-43;46;7;1.06290857028216;5.7871267297715;26.7871267297715;Sadil et al. (2022);Experiment 1;Orientation;1
1;143;58;47;7;1.22985590621829;3.44933798849999;146.4493379885;Sadil et al. (2022);Experiment 1;Orientation;1
1;69;74;48;7;1.05684080999345;7.15930450834441;76.1593045083444;Sadil et al. (2022);Experiment 1;Orientation;1
1;60;9;49;7;1.01785977929831;0.561510325328499;60.5615103253285;Sadil et al. (2022);Experiment 1;Orientation;1
1;53;7;50;7;0.790863887406886;3.4493379885;56.4493379885;Sadil et al. (2022);Experiment 1;Orientation;1
1;20;33;51;7;0.940034755505621;2.5901626285067;22.5901626285067;Sadil et al. (2022);Experiment 1;Orientation;1
1;130;70;52;7;1.02707068901509;-6.30993247402;123.69006752598;Sadil et al. (2022);Experiment 1;Orientation;1
1;142;-12;53;7;1.1241084812209;-6.03982543333399;135.960174566666;Sadil et al. (2022);Experiment 1;Orientation;1
1;14;-52;54;7;1.23109348583966;6.9125476913677;20.9125476913677;Sadil et al. (2022);Experiment 1;Orientation;1
1;23;-9;55;7;1.05999422259629;0.675602633506401;23.6756026335064;Sadil et al. (2022);Experiment 1;Orientation;1
1;57;-34;56;7;0.955029989592731;-3.6167515190706;53.3832484809294;Sadil et al. (2022);Experiment 1;Orientation;1
1;19;38;57;7;1.24610954895616;6.287968261823;25.287968261823;Sadil et al. (2022);Experiment 1;Orientation;1
1;120;79;58;7;0.930987446568906;-4.9831065219;115.0168934781;Sadil et al. (2022);Experiment 1;Orientation;1
1;170;-50;59;7;0.952068251557648;-10.49259476987;159.50740523013;Sadil et al. (2022);Experiment 1;Orientation;1
1;119;51;60;7;1.08114807493985;-7.362058770571;111.637941229429;Sadil et al. (2022);Experiment 1;Orientation;1
1;4;-65;61;7;1.10610521957278;3.72182580013098;7.72182580013098;Sadil et al. (2022);Experiment 1;Orientation;1
1;94;-90;62;7;0.961032551713288;-2.6677801461303;91.3322198538697;Sadil et al. (2022);Experiment 1;Orientation;1
1;97;-3;63;7;1.04405148513615;-1.61845294786809;95.3815470521319;Sadil et al. (2022);Experiment 1;Orientation;1
1;127;-30;64;7;0.955038441345096;-2.491477012332;124.508522987668;Sadil et al. (2022);Experiment 1;Orientation;1
1;8;-61;65;7;1.27411234658211;4.961401850992;12.961401850992;Sadil et al. (2022);Experiment 1;Orientation;1
1;124;64;66;7;0.953029639087617;-7.634584877446;116.365415122554;Sadil et al. (2022);Experiment 1;Orientation;1
1;26;-82;67;7;0.74404716771096;-2.4477363271053;23.5522636728947;Sadil et al. (2022);Experiment 1;Orientation;1
1;62;-36;68;7;1.10526879690588;-8.1193408494797;53.8806591505203;Sadil et al. (2022);Experiment 1;Orientation;1
1;147;-85;69;7;1.42817768920213;-9.682937614129;137.317062385871;Sadil et al. (2022);Experiment 1;Orientation;1
1;45;-78;70;7;0.818964785896242;-1.1017061152064;43.8982938847936;Sadil et al. (2022);Experiment 1;Orientation;1
1;124;-79;71;7;1.20617105346173;-0.546690545927007;123.453309454073;Sadil et al. (2022);Experiment 1;Orientation;1
1;38;86;72;7;1.12501905485988;-2.6887865603668;35.3112134396332;Sadil et al. (2022);Experiment 1;Orientation;1
1;167;51;73;7;1.30195063631982;-13.337688166087;153.662311833913;Sadil et al. (2022);Experiment 1;Orientation;1
1;21;-34;74;7;0.964731706306338;-0.558203441583402;20.4417965584166;Sadil et al. (2022);Experiment 1;Orientation;1
1;110;-89;75;7;1.27581960149109;-3.090728189459;106.909271810541;Sadil et al. (2022);Experiment 1;Orientation;1
1;27;83;76;7;1.06459862086922;-1.2039735055;25.7960264945;Sadil et al. (2022);Experiment 1;Orientation;1
1;154;53;77;7;0.901647761464119;-0.565051177078004;153.434948822922;Sadil et al. (2022);Experiment 1;Orientation;1
1;5;-31;78;7;0.942726338282228;1.18293016594826;6.18293016594826;Sadil et al. (2022);Experiment 1;Orientation;1
1;144;41;79;7;0.875830347649753;-1.65877418863599;142.341225811364;Sadil et al. (2022);Experiment 1;Orientation;1
1;135;9;80;7;1.21904640551656;2.69780563331599;137.697805633316;Sadil et al. (2022);Experiment 1;Orientation;1
1;147;-12;81;7;1.20791332330555;-7.17923392190701;139.820766078093;Sadil et al. (2022);Experiment 1;Orientation;1
1;31;-64;82;7;0.856704917736351;-0.198554023863199;30.8014459761368;Sadil et al. (2022);Experiment 1;Orientation;1
1;5;26;83;7;1.19381125830114;3.37867250621557;8.37867250621557;Sadil et al. (2022);Experiment 1;Orientation;1
1;37;-32;84;7;0.908776821568608;4.0914557055405;41.0914557055405;Sadil et al. (2022);Experiment 1;Orientation;1
1;119;-82;85;7;1.45780654530972;-0.849311411824999;118.150688588175;Sadil et al. (2022);Experiment 1;Orientation;1
1;88;31;86;7;0.962508590891957;-2.3250604347385;85.6749395652615;Sadil et al. (2022);Experiment 1;Orientation;1
1;150;-62;87;7;1.21967274136841;-3.45330945407301;146.546690545927;Sadil et al. (2022);Experiment 1;Orientation;1
1;3;-33;88;7;1.01043732091784;10.7069610040798;13.7069610040798;Sadil et al. (2022);Experiment 1;Orientation;1
1;69;-66;89;7;0.921529623679817;3.74488899790801;72.744888997908;Sadil et al. (2022);Experiment 1;Orientation;1
1;79;-10;90;7;0.954608307220042;-1.13132106663249;77.8686789333675;Sadil et al. (2022);Experiment 1;Orientation;1
1;81;-2;91;7;0.953683444298804;-3.52880770915149;77.4711922908485;Sadil et al. (2022);Experiment 1;Orientation;1
1;141;-60;92;7;0.928846434690058;-7.016978030719;133.983021969281;Sadil et al. (2022);Experiment 1;Orientation;1
1;115;26;93;7;0.823969435878098;5.22183826706301;120.221838267063;Sadil et al. (2022);Experiment 1;Orientation;1
1;150;-35;94;7;1.0031525073573;-6.76902489880999;143.23097510119;Sadil et al. (2022);Experiment 1;Orientation;1
1;136;14;95;7;1.02628648653626;-2.04162667601;133.95837332399;Sadil et al. (2022);Experiment 1;Orientation;1
1;94;42;96;7;0.985247149132192;-5.77604425335871;88.2239557466413;Sadil et al. (2022);Experiment 1;Orientation;1
1;109;-15;97;7;0.968240395188332;4.317708386755;113.317708386755;Sadil et al. (2022);Experiment 1;Orientation;1
1;61;48;98;7;0.72735161986202;-0.809114206706496;60.1908857932935;Sadil et al. (2022);Experiment 1;Orientation;1
1;22;39;99;7;0.774610547348857;0.550875481666999;22.550875481667;Sadil et al. (2022);Experiment 1;Orientation;1
1;125;77;100;7;0.959718907251954;1.573030978519;126.573030978519;Sadil et al. (2022);Experiment 1;Orientation;1
1;20;-75;101;7;1.01874691154808;4.2667884325332;24.2667884325332;Sadil et al. (2022);Experiment 1;Orientation;1
1;39;-19;1;8;1.20409373100847;-1.7920780782184;37.2079219217816;Sadil et al. (2022);Experiment 1;Orientation;1
1;17;22;2;8;0.816920969635248;-1.8542938555698;15.1457061444302;Sadil et al. (2022);Experiment 1;Orientation;1
1;96;-79;3;8;0.949945953674614;-0.499588529798103;95.5004114702019;Sadil et al. (2022);Experiment 1;Orientation;1
1;75;21;4;8;0.713043995201588;-2.981429696964;72.018570303036;Sadil et al. (2022);Experiment 1;Orientation;1
1;108;-33;5;8;0.788311154581606;2.339222112652;110.339222112652;Sadil et al. (2022);Experiment 1;Orientation;1
1;24;84;6;8;0.829422029666603;4.5324532069973;28.5324532069973;Sadil et al. (2022);Experiment 1;Orientation;1
1;80;-56;7;8;1.04260110203177;-6.11341823308931;73.8865817669107;Sadil et al. (2022);Experiment 1;Orientation;1
1;36;44;8;8;0.739686059765518;1.0730733173104;37.0730733173104;Sadil et al. (2022);Experiment 1;Orientation;1
1;69;-33;9;8;0.670857331715524;-2.3340412767098;66.6659587232902;Sadil et al. (2022);Experiment 1;Orientation;1
1;6;63;10;8;0.830140428617597;-7.50743575877496;178.492564241225;Sadil et al. (2022);Experiment 1;Orientation;1
1;91;-85;11;8;0.993277529254556;-2.9480850065149;88.0519149934851;Sadil et al. (2022);Experiment 1;Orientation;1
1;121;-30;12;8;0.956353294663131;-6.623531383325;114.376468616675;Sadil et al. (2022);Experiment 1;Orientation;1
1;167;-46;13;8;1.14144505187869;-16.096888799528;150.903111200472;Sadil et al. (2022);Experiment 1;Orientation;1
1;64;-77;14;8;0.766338084824383;4.77234881136469;68.7723488113647;Sadil et al. (2022);Experiment 1;Orientation;1
1;176;68;15;8;1.28957122098655;-8.58296249407701;167.417037505923;Sadil et al. (2022);Experiment 1;Orientation;1
1;131;45;16;8;0.942668383941054;3.03982543333399;134.039825433334;Sadil et al. (2022);Experiment 1;Orientation;1
1;98;33;17;8;0.933521465398371;4.09475707701201;102.094757077012;Sadil et al. (2022);Experiment 1;Orientation;1
1;159;-61;18;8;1.18859561625868;-15.027373385104;143.972626614896;Sadil et al. (2022);Experiment 1;Orientation;1
1;111;48;19;8;0.943476131185889;2.657996998763;113.657996998763;Sadil et al. (2022);Experiment 1;Orientation;1
1;132;-21;20;8;1.2345520677045;0.367565131014004;132.367565131014;Sadil et al. (2022);Experiment 1;Orientation;1
1;84;48;21;8;1.10733193252236;0.766138352783599;84.7661383527836;Sadil et al. (2022);Experiment 1;Orientation;1
1;160;-76;22;8;1.02027486916631;-6.33768816608699;153.662311833913;Sadil et al. (2022);Experiment 1;Orientation;1
1;163;-3;23;8;1.16933073289692;-1.58692666148599;161.413073338514;Sadil et al. (2022);Experiment 1;Orientation;1
1;25;-42;24;8;0.910255880095065;3.131342364061;28.131342364061;Sadil et al. (2022);Experiment 1;Orientation;1
1;156;49;25;8;1.03532775770873;-10.200484130269;145.799515869731;Sadil et al. (2022);Experiment 1;Orientation;1
1;38;-62;26;8;1.21435718797147;6.3414568224364;44.3414568224364;Sadil et al. (2022);Experiment 1;Orientation;1
1;135;83;27;8;0.959318352863193;-0.939190945735987;134.060809054264;Sadil et al. (2022);Experiment 1;Orientation;1
1;83;52;28;8;0.906330641359091;3.0995062576181;86.0995062576181;Sadil et al. (2022);Experiment 1;Orientation;1
1;28;55;29;8;0.745335759595037;4.4711922908485;32.4711922908485;Sadil et al. (2022);Experiment 1;Orientation;1
1;10;18;30;8;1.01655307598412;10.0220832366448;20.0220832366448;Sadil et al. (2022);Experiment 1;Orientation;1
1;22;-12;31;8;0.895551324822009;6.0178935464546;28.0178935464546;Sadil et al. (2022);Experiment 1;Orientation;1
1;63;-41;32;8;1.04468234814703;3.4477363271053;66.4477363271053;Sadil et al. (2022);Experiment 1;Orientation;1
1;13;50;33;8;0.969707077369094;12.6592645169673;25.6592645169673;Sadil et al. (2022);Experiment 1;Orientation;1
1;37;-24;34;8;0.778751607984304;-1.1888360773588;35.8111639226412;Sadil et al. (2022);Experiment 1;Orientation;1
1;54;-17;35;8;0.899952278472483;0.881406120350199;54.8814061203502;Sadil et al. (2022);Experiment 1;Orientation;1
1;116;-62;36;8;1.00102085154504;-4.55226367289499;111.447736327105;Sadil et al. (2022);Experiment 1;Orientation;1
1;157;-41;37;8;1.22796844691038;-11.231855438892;145.768144561108;Sadil et al. (2022);Experiment 1;Orientation;1
1;145;12;38;8;0.948912725783885;-0.362461887069003;144.637538112931;Sadil et al. (2022);Experiment 1;Orientation;1
1;40;-75;39;8;0.79618427157402;-4.5666859897144;35.4333140102856;Sadil et al. (2022);Experiment 1;Orientation;1
1;46;-6;40;8;0.839305760338902;-5.8566039339432;40.1433960660568;Sadil et al. (2022);Experiment 1;Orientation;1
1;90;-44;41;8;0.958467442542315;-9.309940174986;80.690059825014;Sadil et al. (2022);Experiment 1;Orientation;1
1;108;-18;42;8;0.957479491829872;-2.91364599153501;105.086354008465;Sadil et al. (2022);Experiment 1;Orientation;1
1;53;55;43;8;0.914446142502129;-6.2642954110716;46.7357045889284;Sadil et al. (2022);Experiment 1;Orientation;1
1;58;-5;44;8;1.15747532621026;-2.4183644790562;55.5816355209438;Sadil et al. (2022);Experiment 1;Orientation;1
1;40;18;45;8;0.792502019554377;0.100907546212198;40.1009075462122;Sadil et al. (2022);Experiment 1;Orientation;1
1;37;3;46;8;0.771592061035335;2.4006606634794;39.4006606634794;Sadil et al. (2022);Experiment 1;Orientation;1
1;163;54;47;8;1.11670584231615;-10.439727948199;152.560272051801;Sadil et al. (2022);Experiment 1;Orientation;1
1;161;2;48;8;1.09367720689625;-4.71359488634101;156.286405113659;Sadil et al. (2022);Experiment 1;Orientation;1
1;164;-3;49;8;0.932654857635498;-4.772254682046;159.227745317954;Sadil et al. (2022);Experiment 1;Orientation;1
1;3;-19;50;8;1.24573706742376;12.8191939475001;15.8191939475001;Sadil et al. (2022);Experiment 1;Orientation;1
1;38;-35;51;8;0.920662714168429;12.1944289077348;50.1944289077348;Sadil et al. (2022);Experiment 1;Orientation;1
1;167;51;52;8;0.896161663345993;-6.49306191115099;160.506938088849;Sadil et al. (2022);Experiment 1;Orientation;1
1;63;-76;53;8;1.01691710483283;0.2518958370785;63.2518958370785;Sadil et al. (2022);Experiment 1;Orientation;1
1;154;89;54;8;1.15992271434516;-8.215702132437;145.784297867563;Sadil et al. (2022);Experiment 1;Orientation;1
1;23;-49;55;8;0.852730175480247;2.4077181089485;25.4077181089485;Sadil et al. (2022);Experiment 1;Orientation;1
1;20;3;56;8;0.954002195969224;6.3376881660874;26.3376881660874;Sadil et al. (2022);Experiment 1;Orientation;1
1;139;61;57;8;1.04302459582686;-8.10811217713601;130.891887822864;Sadil et al. (2022);Experiment 1;Orientation;1
1;131;8;58;8;0.916040204465389;0.67259575827299;131.672595758273;Sadil et al. (2022);Experiment 1;Orientation;1
1;67;64;59;8;1.02517085429281;-0.255714901014699;66.7442850989853;Sadil et al. (2022);Experiment 1;Orientation;1
1;9;58;60;8;0.896331905387342;5.6012722858339;14.6012722858339;Sadil et al. (2022);Experiment 1;Orientation;1
1;112;77;61;8;0.953354428522289;-0.931025068069005;111.068974931931;Sadil et al. (2022);Experiment 1;Orientation;1
1;39;73;62;8;0.978547015227377;-3.5200218657741;35.4799781342259;Sadil et al. (2022);Experiment 1;Orientation;1
1;66;-27;63;8;0.857619217596948;2.82426058289541;68.8242605828954;Sadil et al. (2022);Experiment 1;Orientation;1
1;120;-54;64;8;0.988825564272702;-2.510903470149;117.489096529851;Sadil et al. (2022);Experiment 1;Orientation;1
1;34;86;65;8;1.06387388333678;4.4430535018366;38.4430535018366;Sadil et al. (2022);Experiment 1;Orientation;1
1;155;59;66;8;0.952903466299176;-5.56083926737199;149.439160732628;Sadil et al. (2022);Experiment 1;Orientation;1
1;83;72;67;8;0.923951959237456;-3.22900828735951;79.7709917126405;Sadil et al. (2022);Experiment 1;Orientation;1
1;62;21;68;8;0.879046847112477;6.9967772885658;68.9967772885658;Sadil et al. (2022);Experiment 1;Orientation;1
1;139;-77;69;8;0.966212576255202;2.407440282533;141.407440282533;Sadil et al. (2022);Experiment 1;Orientation;1
1;146;-7;70;8;1.16534270811826;-5.54608111140899;140.453918888591;Sadil et al. (2022);Experiment 1;Orientation;1
1;124;22;71;8;1.13421064708382;0.911830216609999;124.91183021661;Sadil et al. (2022);Experiment 1;Orientation;1
1;161;-37;72;8;1.20713727083057;-4.657996998763;156.342003001237;Sadil et al. (2022);Experiment 1;Orientation;1
1;153;8;73;8;1.13215898163617;-1.22877618136999;151.77122381863;Sadil et al. (2022);Experiment 1;Orientation;1
1;13;-40;74;8;1.38698772806674;5.434948822922;18.434948822922;Sadil et al. (2022);Experiment 1;Orientation;1
1;159;34;75;8;1.12779424991459;-4.64100582430501;154.358994175695;Sadil et al. (2022);Experiment 1;Orientation;1
1;150;9;76;8;1.15274294372648;-4.72464183512199;145.275358164878;Sadil et al. (2022);Experiment 1;Orientation;1
1;85;65;77;8;1.15971806179732;-2.8237107318853;82.1762892681147;Sadil et al. (2022);Experiment 1;Orientation;1
1;132;-47;78;8;1.09657495375723;-7.007979801441;124.992020198559;Sadil et al. (2022);Experiment 1;Orientation;1
1;17;-65;79;8;0.961604252457619;2.4114868586836;19.4114868586836;Sadil et al. (2022);Experiment 1;Orientation;1
1;137;60;80;8;1.06462126038969;-3.016978030719;133.983021969281;Sadil et al. (2022);Experiment 1;Orientation;1
1;168;-31;81;8;1.47563825175166;-7.68711619812601;160.312883801874;Sadil et al. (2022);Experiment 1;Orientation;1
1;116;52;82;8;1.15632558520883;7.562743781092;123.562743781092;Sadil et al. (2022);Experiment 1;Orientation;1
1;83;33;83;8;1.23926815018058;0.0887728809752986;83.0887728809753;Sadil et al. (2022);Experiment 1;Orientation;1
1;106;-23;84;8;1.04411336407065;10.354405877923;116.354405877923;Sadil et al. (2022);Experiment 1;Orientation;1
1;157;-51;85;8;1.06109113991261;-1.39943592417501;155.600564075825;Sadil et al. (2022);Experiment 1;Orientation;1
1;86;71;86;8;1.106021608226;4.45113854678731;90.4511385467873;Sadil et al. (2022);Experiment 1;Orientation;1
1;161;-75;87;8;1.13903056457639;-5.87415391412799;155.125846085872;Sadil et al. (2022);Experiment 1;Orientation;1
1;31;-50;88;8;0.969931351020932;-2.6992442339936;28.3007557660064;Sadil et al. (2022);Experiment 1;Orientation;1
1;84;-53;89;8;1.24487800616771;-3.95807059846101;80.041929401539;Sadil et al. (2022);Experiment 1;Orientation;1
1;52;32;90;8;0.963747679255903;4.1695019230829;56.1695019230829;Sadil et al. (2022);Experiment 1;Orientation;1
1;161;71;91;8;1.18488106690347;-6.782904823021;154.217095176979;Sadil et al. (2022);Experiment 1;Orientation;1
1;157;4;92;8;1.05381447635591;-4.22867917709101;152.771320822909;Sadil et al. (2022);Experiment 1;Orientation;1
1;121;36;93;8;1.03084832429886;3.438989308804;124.438989308804;Sadil et al. (2022);Experiment 1;Orientation;1
1;17;-76;94;8;1.22378814592958;7.4439547804165;24.4439547804165;Sadil et al. (2022);Experiment 1;Orientation;1
1;16;1;95;8;0.964747402817011;7.1985905136482;23.1985905136482;Sadil et al. (2022);Experiment 1;Orientation;1
1;28;-12;96;8;0.993829912506044;1.5536836323074;29.5536836323074;Sadil et al. (2022);Experiment 1;Orientation;1
1;13;15;97;8;1.33087860047817;9.9489372809233;22.9489372809233;Sadil et al. (2022);Experiment 1;Orientation;1
1;108;85;98;8;0.953724193386734;-1.178590109959;106.821409890041;Sadil et al. (2022);Experiment 1;Orientation;1
1;57;51;99;8;1.33272500801831;-0.562743781092401;56.4372562189076;Sadil et al. (2022);Experiment 1;Orientation;1
1;102;-45;100;8;1.28760014940053;0.00229489878400102;102.002294898784;Sadil et al. (2022);Experiment 1;Orientation;1
1;165;-63;101;8;1.43222561385483;-12.606677853088;152.393322146912;Sadil et al. (2022);Experiment 1;Orientation;1
1;134;31;1;9;0.949254116974771;-4.680890817966;129.319109182034;Sadil et al. (2022);Experiment 1;Orientation;1
1;159;-25;2;9;0.788233579136431;-6.36354692739201;152.636453072608;Sadil et al. (2022);Experiment 1;Orientation;1
1;147;12;3;9;0.823370568454266;-1.426476581439;145.573523418561;Sadil et al. (2022);Experiment 1;Orientation;1
1;28;-61;4;9;1.04251447226852;12.9622893790229;40.9622893790229;Sadil et al. (2022);Experiment 1;Orientation;1
1;7;21;5;9;0.939520102925599;-0.11827636936305;6.88172363063695;Sadil et al. (2022);Experiment 1;Orientation;1
1;140;47;6;9;0.83268712554127;-10.612203229325;129.387796770675;Sadil et al. (2022);Experiment 1;Orientation;1
1;119;21;7;9;0.731684053316712;5.101274194247;124.101274194247;Sadil et al. (2022);Experiment 1;Orientation;1
1;97;22;8;9;0.847032782621682;3.447817549474;100.447817549474;Sadil et al. (2022);Experiment 1;Orientation;1
1;53;44;9;9;0.782111183740199;0.2267224641082;53.2267224641082;Sadil et al. (2022);Experiment 1;Orientation;1
1;85;-32;10;9;0.703333524987102;4.0608090542644;89.0608090542644;Sadil et al. (2022);Experiment 1;Orientation;1
1;124;-39;11;9;0.784397083334625;-6.48010756905001;117.51989243095;Sadil et al. (2022);Experiment 1;Orientation;1
1;120;4;12;9;0.815725647844374;-2.684392026558;117.315607973442;Sadil et al. (2022);Experiment 1;Orientation;1
1;67;53;13;9;1.1347796311602;-0.374164365048202;66.6258356349518;Sadil et al. (2022);Experiment 1;Orientation;1
1;163;84;14;9;0.917711842805147;-2.47030200946699;160.529697990533;Sadil et al. (2022);Experiment 1;Orientation;1
1;70;-87;15;9;0.83082592766732;0.407718108948501;70.4077181089485;Sadil et al. (2022);Experiment 1;Orientation;1
1;109;-39;16;9;1.07193142920733;2.982438203119;111.982438203119;Sadil et al. (2022);Experiment 1;Orientation;1
1;4;-75;17;9;0.992907160893083;-2.47923033885623;1.52076966114377;Sadil et al. (2022);Experiment 1;Orientation;1
1;120;64;18;9;1.30796889401972;-11.2882621249;108.7117378751;Sadil et al. (2022);Experiment 1;Orientation;1
1;4;-64;19;9;0.874755163677037;1.32574062476772;5.32574062476772;Sadil et al. (2022);Experiment 1;Orientation;1
1;94;-90;20;9;0.973784448578954;-3.0451587461278;90.9548412538722;Sadil et al. (2022);Experiment 1;Orientation;1
1;140;-46;21;9;1.154845318757;-10.194428907735;129.805571092265;Sadil et al. (2022);Experiment 1;Orientation;1
1;99;41;22;9;0.919692874886096;1.344857481475;100.344857481475;Sadil et al. (2022);Experiment 1;Orientation;1
1;23;76;23;9;0.874795006588101;15.0115102700165;38.0115102700165;Sadil et al. (2022);Experiment 1;Orientation;1
1;130;73;24;9;0.861986664123833;-11.189206257027;118.810793742973;Sadil et al. (2022);Experiment 1;Orientation;1
1;67;63;25;9;0.84505959879607;5.328949638008;72.328949638008;Sadil et al. (2022);Experiment 1;Orientation;1
1;90;-23;26;9;0.866322719492018;-0.465809082765006;89.534190917235;Sadil et al. (2022);Experiment 1;Orientation;1
1;48;42;27;9;0.823404677212238;5.595911436921;53.595911436921;Sadil et al. (2022);Experiment 1;Orientation;1
1;7;41;28;9;1.18448534421623;4.0514570266654;11.0514570266654;Sadil et al. (2022);Experiment 1;Orientation;1
1;25;-18;29;9;0.863350719213486;-0.1258460858724;24.8741539141276;Sadil et al. (2022);Experiment 1;Orientation;1
1;166;39;30;9;0.918488197028637;-9.604115042914;156.395884957086;Sadil et al. (2022);Experiment 1;Orientation;1
1;118;48;31;9;0.875486542470753;5.023867555797;123.023867555797;Sadil et al. (2022);Experiment 1;Orientation;1
1;20;-82;32;9;1.10053128376603;4.962789830807;24.962789830807;Sadil et al. (2022);Experiment 1;Orientation;1
1;101;-81;33;9;1.17357864789665;-6.1354855622395;94.8645144377605;Sadil et al. (2022);Experiment 1;Orientation;1
1;114;-13;34;9;0.868602280505002;-4.750474127318;109.249525872682;Sadil et al. (2022);Experiment 1;Orientation;1
1;129;-15;35;9;0.727658297866583;-0.340191745910005;128.65980825409;Sadil et al. (2022);Experiment 1;Orientation;1
1;153;-24;36;9;0.904955116100609;-7.84094400415299;145.159055995847;Sadil et al. (2022);Experiment 1;Orientation;1
1;122;31;37;9;0.699919014237821;-4.74467162505699;117.255328374943;Sadil et al. (2022);Experiment 1;Orientation;1
1;81;41;38;9;0.64726846665144;-2.58061918222811;78.4193808177719;Sadil et al. (2022);Experiment 1;Orientation;1
1;91;-10;39;9;0.756565735675395;3.3987053549955;94.3987053549955;Sadil et al. (2022);Experiment 1;Orientation;1
1;38;53;40;9;0.641778443939984;12.4205952837624;50.4205952837624;Sadil et al. (2022);Experiment 1;Orientation;1
1;79;-41;41;9;0.71302920486778;-2.51253063578601;76.487469364214;Sadil et al. (2022);Experiment 1;Orientation;1
1;50;29;42;9;0.66028780117631;-3.1523897340054;46.8476102659946;Sadil et al. (2022);Experiment 1;Orientation;1
1;127;-77;43;9;0.75758568290621;4.275942027252;131.275942027252;Sadil et al. (2022);Experiment 1;Orientation;1
1;55;72;44;9;0.602772358804941;-0.193907240102902;54.8060927598971;Sadil et al. (2022);Experiment 1;Orientation;1
1;123;-68;45;9;0.818014265038073;6.97592474146001;129.97592474146;Sadil et al. (2022);Experiment 1;Orientation;1
1;81;42;46;9;0.797136000357568;-4.458684608615;76.541315391385;Sadil et al. (2022);Experiment 1;Orientation;1
1;52;29;47;9;0.916239727288485;-1.2894068625004;50.7105931374996;Sadil et al. (2022);Experiment 1;Orientation;1
1;51;1;48;9;0.64735600259155;-0.472459848343803;50.5275401516562;Sadil et al. (2022);Experiment 1;Orientation;1
1;170;61;49;9;1.03063491731882;-10.556045219583;159.443954780417;Sadil et al. (2022);Experiment 1;Orientation;1
1;167;3;50;9;0.847580637782812;-3.50436138175499;163.495638618245;Sadil et al. (2022);Experiment 1;Orientation;1
1;84;83;51;9;0.906720327213407;-7.8348531566587;76.1651468433413;Sadil et al. (2022);Experiment 1;Orientation;1
1;14;70;52;9;1.01384187210351;-1.6609127216738;12.3390872783262;Sadil et al. (2022);Experiment 1;Orientation;1
1;172;22;53;9;1.11888005677611;-2.72444853747101;169.275551462529;Sadil et al. (2022);Experiment 1;Orientation;1
1;141;31;54;9;1.0239036930725;4.24408744645899;145.244087446459;Sadil et al. (2022);Experiment 1;Orientation;1
1;162;-21;55;9;0.870831734500825;-6.29096240835099;155.709037591649;Sadil et al. (2022);Experiment 1;Orientation;1
1;174;-12;56;9;0.965913141146302;-12.575724410681;161.424275589319;Sadil et al. (2022);Experiment 1;Orientation;1
1;91;83;57;9;1.04901327192783;-11.6456633449603;79.3543366550397;Sadil et al. (2022);Experiment 1;Orientation;1
1;43;48;58;9;0.983941050246358;13.9042657154917;56.9042657154917;Sadil et al. (2022);Experiment 1;Orientation;1
1;49;-6;59;9;1.13106749672443;0.200622204635401;49.2006222046354;Sadil et al. (2022);Experiment 1;Orientation;1
1;156;73;60;9;1.08008224796504;-1.740708356233;154.259291643767;Sadil et al. (2022);Experiment 1;Orientation;1
1;22;-46;61;9;1.07308117114007;18.6012946450045;40.6012946450045;Sadil et al. (2022);Experiment 1;Orientation;1
1;175;27;62;9;0.912163864821196;-12.525568373723;162.474431626277;Sadil et al. (2022);Experiment 1;Orientation;1
1;129;46;63;9;0.877249337732792;-3.625248156124;125.374751843876;Sadil et al. (2022);Experiment 1;Orientation;1
1;1;-52;64;9;0.898425225168467;15.5688291795991;16.5688291795991;Sadil et al. (2022);Experiment 1;Orientation;1
1;95;86;65;9;0.923510053195059;0.856013585428997;95.856013585429;Sadil et al. (2022);Experiment 1;Orientation;1
1;60;35;66;9;0.804671348072588;-2.8812396652748;57.1187603347252;Sadil et al. (2022);Experiment 1;Orientation;1
1;145;-85;67;9;0.915828005410731;4.816319342778;149.816319342778;Sadil et al. (2022);Experiment 1;Orientation;1
1;2;-37;68;9;1.04095602687448;5.74471054642292;7.74471054642292;Sadil et al. (2022);Experiment 1;Orientation;1
1;176;6;69;9;1.1318761492148;-3.650650955359;172.349349044641;Sadil et al. (2022);Experiment 1;Orientation;1
1;122;54;70;9;0.874756067991257;-7.85445803957801;114.145541960422;Sadil et al. (2022);Experiment 1;Orientation;1
1;140;-18;71;9;0.887912140227854;-0.846146913049012;139.153853086951;Sadil et al. (2022);Experiment 1;Orientation;1
1;139;1;72;9;0.908981173299253;-4.339024324451;134.660975675549;Sadil et al. (2022);Experiment 1;Orientation;1
1;95;44;73;9;0.890043191611767;-1.9606004310731;93.0393995689269;Sadil et al. (2022);Experiment 1;Orientation;1
1;122;-27;74;9;0.905211084522307;3.68522024571;125.68522024571;Sadil et al. (2022);Experiment 1;Orientation;1
1;47;75;75;9;1.16040506865829;0.726310993906303;47.7263109939063;Sadil et al. (2022);Experiment 1;Orientation;1
1;120;-73;76;9;0.83333942014724;1.045490826863;121.045490826863;Sadil et al. (2022);Experiment 1;Orientation;1
1;24;-84;77;9;1.02443826664239;4.53998518796;28.53998518796;Sadil et al. (2022);Experiment 1;Orientation;1
1;80;-56;78;9;1.10147124063224;-14.9047688080952;65.0952311919048;Sadil et al. (2022);Experiment 1;Orientation;1
1;31;49;79;9;0.798515750095248;6.9210783953878;37.9210783953878;Sadil et al. (2022);Experiment 1;Orientation;1
1;14;17;80;9;1.1596410907805;2.1443387802835;16.1443387802835;Sadil et al. (2022);Experiment 1;Orientation;1
1;179;15;81;9;1.10843005869538;-4.46384281323699;174.536157186763;Sadil et al. (2022);Experiment 1;Orientation;1
1;89;90;82;9;0.787541138939559;0.104826289788903;89.1048262897889;Sadil et al. (2022);Experiment 1;Orientation;1
1;139;-50;83;9;0.792820772156119;-13.462322208026;125.537677791974;Sadil et al. (2022);Experiment 1;Orientation;1
1;3;-44;84;9;0.909861966967583;4.74471054642292;7.74471054642292;Sadil et al. (2022);Experiment 1;Orientation;1
1;156;27;85;9;1.00510305352509;-6.29169610031701;149.708303899683;Sadil et al. (2022);Experiment 1;Orientation;1
1;107;49;86;9;1.19007014669478;-1.864164496252;105.135835503748;Sadil et al. (2022);Experiment 1;Orientation;1
