obs;theta;resp;error;rt;block;delta;trial;cond;study;experiment;stimulus;expnum
1;23;107.2109375;84.2109375;9;1;NaN;1;1;Samaha et al. (2019);Experiment 1;Orientation;1
1;151;129.640625;-21.359375;9;1;52;2;0;Samaha et al. (2019);Experiment 1;Orientation;1
1;4;173.015625;-10.984375;9;1;-33;3;0;Samaha et al. (2019);Experiment 1;Orientation;1
1;153;142.5859375;-10.4140625;9;1;31;4;0;Samaha et al. (2019);Experiment 1;Orientation;1
1;115;119.609375;4.609375;9;1;38;5;0;Samaha et al. (2019);Experiment 1;Orientation;1
1;86;63.8359375;-22.1640625;9;1;29;6;0;Samaha et al. (2019);Experiment 1;Orientation;1
1;107;120;13;9;1;-21;7;0;Samaha et al. (2019);Experiment 1;Orientation;1
1;90;92.46875;2.46875;9;1;17;8;0;Samaha et al. (2019);Experiment 1;Orientation;1
1;118;121.9375;3.9375;9;1;-28;9;1;Samaha et al. (2019);Experiment 1;Orientation;1
1;90;78.9140625;-11.0859375;9;1;28;10;1;Samaha et al. (2019);Experiment 1;Orientation;1
1;167;133.921875;-33.078125;9;1;-77;11;1;Samaha et al. (2019);Experiment 1;Orientation;1
1;39;122.6796875;83.6796875;9;1;-52;12;0;Samaha et al. (2019);Experiment 1;Orientation;1
1;12;148.546875;-43.453125;9;1;27;13;0;Samaha et al. (2019);Experiment 1;Orientation;1
1;56;57.2265625;1.2265625;9;1;-44;14;1;Samaha et al. (2019);Experiment 1;Orientation;1
1;92;106.5859375;14.5859375;9;1;-36;15;1;Samaha et al. (2019);Experiment 1;Orientation;1
1;32;82.6015625;50.6015625;9;1;60;16;1;Samaha et al. (2019);Experiment 1;Orientation;1
1;109;119.5078125;10.5078125;9;1;-77;17;1;Samaha et al. (2019);Experiment 1;Orientation;1
1;26;45.3125;19.3125;9;1;83;18;1;Samaha et al. (2019);Experiment 1;Orientation;1
1;99;97.390625;-1.609375;9;1;-73;19;1;Samaha et al. (2019);Experiment 1;Orientation;1
1;97;101.0625;4.0625;9;1;2;20;1;Samaha et al. (2019);Experiment 1;Orientation;1
1;81;86.1875;5.1875;9;1;16;21;0;Samaha et al. (2019);Experiment 1;Orientation;1
1;35;45.90625;10.90625;9;1;46;22;1;Samaha et al. (2019);Experiment 1;Orientation;1
1;163;92.15625;-70.84375;9;1;52;23;1;Samaha et al. (2019);Experiment 1;Orientation;1
1;59;59.5390625;0.5390625;9;1;-76;24;1;Samaha et al. (2019);Experiment 1;Orientation;1
1;24;25.40625;1.40625;9;1;35;25;0;Samaha et al. (2019);Experiment 1;Orientation;1
1;176;5.296875;9.296875;9;1;28;26;0;Samaha et al. (2019);Experiment 1;Orientation;1
1;1;42.0234375;41.0234375;9;1;-5;27;1;Samaha et al. (2019);Experiment 1;Orientation;1
1;179;167.2265625;-11.7734375;9;1;2;28;0;Samaha et al. (2019);Experiment 1;Orientation;1
1;146;150.6328125;4.6328125;9;1;33;29;1;Samaha et al. (2019);Experiment 1;Orientation;1
1;166;138;-28;9;1;-20;30;1;Samaha et al. (2019);Experiment 1;Orientation;1
1;67;52.9296875;-14.0703125;9;1;-81;31;0;Samaha et al. (2019);Experiment 1;Orientation;1
1;88;73.59375;-14.40625;9;1;-21;32;0;Samaha et al. (2019);Experiment 1;Orientation;1
1;106;117.5703125;11.5703125;9;1;-18;33;1;Samaha et al. (2019);Experiment 1;Orientation;1
1;65;66.25;1.25;9;1;41;34;0;Samaha et al. (2019);Experiment 1;Orientation;1
1;126;134.0390625;8.0390625;9;1;-61;35;0;Samaha et al. (2019);Experiment 1;Orientation;1
1;128;123.125;-4.875;9;1;-2;36;1;Samaha et al. (2019);Experiment 1;Orientation;1
1;78;67.625;-10.375;9;1;50;37;1;Samaha et al. (2019);Experiment 1;Orientation;1
1;73;70;-3;9;1;5;38;0;Samaha et al. (2019);Experiment 1;Orientation;1
1;65;47.671875;-17.328125;9;1;8;39;0;Samaha et al. (2019);Experiment 1;Orientation;1
1;39;50.3984375;11.3984375;9;1;26;40;0;Samaha et al. (2019);Experiment 1;Orientation;1
1;142;139.296875;-2.703125;9;1;77;41;1;Samaha et al. (2019);Experiment 1;Orientation;1
1;107;119.7265625;12.7265625;9;1;35;42;0;Samaha et al. (2019);Experiment 1;Orientation;1
1;138;125.078125;-12.921875;9;1;-31;43;1;Samaha et al. (2019);Experiment 1;Orientation;1
1;45;93.390625;48.390625;9;1;-87;44;1;Samaha et al. (2019);Experiment 1;Orientation;1
1;47;51.1953125;4.1953125;9;1;-2;45;1;Samaha et al. (2019);Experiment 1;Orientation;1
1;58;53.5234375;-4.4765625;9;1;-11;46;1;Samaha et al. (2019);Experiment 1;Orientation;1
1;167;142.6328125;-24.3671875;9;1;71;47;0;Samaha et al. (2019);Experiment 1;Orientation;1
1;26;39.140625;13.140625;9;1;-39;48;1;Samaha et al. (2019);Experiment 1;Orientation;1
1;25;34.53125;9.53125;9;1;1;49;0;Samaha et al. (2019);Experiment 1;Orientation;1
1;82;81.703125;-0.296875;9;1;-57;50;1;Samaha et al. (2019);Experiment 1;Orientation;1
1;14;32.3515625;18.3515625;9;1;68;51;1;Samaha et al. (2019);Experiment 1;Orientation;1
1;151;140.734375;-10.265625;9;1;43;52;0;Samaha et al. (2019);Experiment 1;Orientation;1
1;13;20.9609375;7.9609375;9;1;-42;53;1;Samaha et al. (2019);Experiment 1;Orientation;1
1;154;142.21875;-11.78125;9;1;39;54;0;Samaha et al. (2019);Experiment 1;Orientation;1
1;93;93.1640625;0.1640625;9;1;61;55;1;Samaha et al. (2019);Experiment 1;Orientation;1
1;45;40;-5;9;1;48;56;1;Samaha et al. (2019);Experiment 1;Orientation;1
1;128;131.140625;3.140625;9;1;-83;57;0;Samaha et al. (2019);Experiment 1;Orientation;1
1;111;93.5546875;-17.4453125;9;1;17;58;0;Samaha et al. (2019);Experiment 1;Orientation;1
1;111;135.5546875;24.5546875;9;1;0;59;1;Samaha et al. (2019);Experiment 1;Orientation;1
1;6;91.8046875;85.8046875;9;1;-75;60;0;Samaha et al. (2019);Experiment 1;Orientation;1
1;6;91.8046875;85.8046875;9;1;0;61;1;Samaha et al. (2019);Experiment 1;Orientation;1
1;65;94.796875;29.796875;9;2;-59;251;0;Samaha et al. (2019);Experiment 1;Orientation;1
1;84;90.6171875;6.6171875;9;2;-19;252;1;Samaha et al. (2019);Experiment 1;Orientation;1
1;103;125.40625;22.40625;9;2;-19;253;1;Samaha et al. (2019);Experiment 1;Orientation;1
1;43;42.9609375;-0.0390625;9;2;60;254;0;Samaha et al. (2019);Experiment 1;Orientation;1
1;69;58.6328125;-10.3671875;9;2;-26;255;0;Samaha et al. (2019);Experiment 1;Orientation;1
1;22;48.1171875;26.1171875;9;2;47;256;0;Samaha et al. (2019);Experiment 1;Orientation;1
1;93;80.8828125;-12.1171875;9;2;-71;257;1;Samaha et al. (2019);Experiment 1;Orientation;1
1;7;47.2578125;40.2578125;9;2;86;258;1;Samaha et al. (2019);Experiment 1;Orientation;1
1;108;103.1640625;-4.8359375;9;2;79;259;1;Samaha et al. (2019);Experiment 1;Orientation;1
1;5;172.5;-12.5;9;2;-77;260;1;Samaha et al. (2019);Experiment 1;Orientation;1
1;43;50.234375;7.234375;9;2;-38;261;0;Samaha et al. (2019);Experiment 1;Orientation;1
1;13;123.03125;-69.96875;9;2;30;262;0;Samaha et al. (2019);Experiment 1;Orientation;1
1;163;167.7578125;4.7578125;9;2;30;263;0;Samaha et al. (2019);Experiment 1;Orientation;1
1;125;130.796875;5.796875;9;2;38;264;0;Samaha et al. (2019);Experiment 1;Orientation;1
1;20;36.84375;16.84375;9;2;-75;265;0;Samaha et al. (2019);Experiment 1;Orientation;1
1;115;127.7421875;12.7421875;9;2;85;266;1;Samaha et al. (2019);Experiment 1;Orientation;1
1;170;155.1640625;-14.8359375;9;2;-55;267;0;Samaha et al. (2019);Experiment 1;Orientation;1
1;105;117.65625;12.65625;9;2;65;268;0;Samaha et al. (2019);Experiment 1;Orientation;1
1;120;129.7734375;9.7734375;9;2;-15;269;0;Samaha et al. (2019);Experiment 1;Orientation;1
1;24;171.015625;-32.984375;9;2;-84;270;0;Samaha et al. (2019);Experiment 1;Orientation;1
1;0;34.0234375;34.0234375;9;2;24;271;1;Samaha et al. (2019);Experiment 1;Orientation;1
1;75;71.296875;-3.703125;9;2;-75;272;0;Samaha et al. (2019);Experiment 1;Orientation;1
1;3;169.875;-13.125;9;2;72;273;1;Samaha et al. (2019);Experiment 1;Orientation;1
1;133;128.9921875;-4.0078125;9;2;50;274;0;Samaha et al. (2019);Experiment 1;Orientation;1
1;1;28.5;27.5;9;2;-48;275;0;Samaha et al. (2019);Experiment 1;Orientation;1
1;3;13.140625;10.140625;9;2;-2;276;0;Samaha et al. (2019);Experiment 1;Orientation;1
1;89;68.0859375;-20.9140625;9;2;-86;277;1;Samaha et al. (2019);Experiment 1;Orientation;1
1;90;83.703125;-6.296875;9;2;-1;278;1;Samaha et al. (2019);Experiment 1;Orientation;1
1;76;67.1640625;-8.8359375;9;2;14;279;1;Samaha et al. (2019);Experiment 1;Orientation;1
1;147;134.453125;-12.546875;9;2;-71;280;1;Samaha et al. (2019);Experiment 1;Orientation;1
1;129;121.140625;-7.859375;9;2;18;281;1;Samaha et al. (2019);Experiment 1;Orientation;1
1;37;46.5859375;9.5859375;9;2;-88;282;0;Samaha et al. (2019);Experiment 1;Orientation;1
1;103;131.2109375;28.2109375;9;2;-66;283;0;Samaha et al. (2019);Experiment 1;Orientation;1
1;78;65.2734375;-12.7265625;9;2;25;284;0;Samaha et al. (2019);Experiment 1;Orientation;1
1;129;136.5625;7.5625;9;2;-51;285;0;Samaha et al. (2019);Experiment 1;Orientation;1
1;125;123.2109375;-1.7890625;9;2;4;286;1;Samaha et al. (2019);Experiment 1;Orientation;1
1;3;80.8828125;77.8828125;9;2;-58;287;0;Samaha et al. (2019);Experiment 1;Orientation;1
1;149;138.28125;-10.71875;9;2;34;288;1;Samaha et al. (2019);Experiment 1;Orientation;1
1;72;50.8125;-21.1875;9;2;77;289;1;Samaha et al. (2019);Experiment 1;Orientation;1
1;100;100.6796875;0.6796875;9;2;-28;290;1;Samaha et al. (2019);Experiment 1;Orientation;1
1;164;148;-16;9;2;-64;291;1;Samaha et al. (2019);Experiment 1;Orientation;1
1;170;127.421875;-42.578125;9;2;-6;292;1;Samaha et al. (2019);Experiment 1;Orientation;1
1;130;130.171875;0.171875;9;2;40;293;1;Samaha et al. (2019);Experiment 1;Orientation;1
1;175;128.9609375;-46.0390625;9;2;-45;294;1;Samaha et al. (2019);Experiment 1;Orientation;1
1;172;52.6015625;60.6015625;9;2;3;295;0;Samaha et al. (2019);Experiment 1;Orientation;1
1;170;145.96875;-24.03125;9;2;2;296;1;Samaha et al. (2019);Experiment 1;Orientation;1
1;56;41.7578125;-14.2421875;9;2;-66;297;1;Samaha et al. (2019);Experiment 1;Orientation;1
1;162;149.4609375;-12.5390625;9;2;74;298;0;Samaha et al. (2019);Experiment 1;Orientation;1
1;42;40.796875;-1.203125;9;2;-60;299;0;Samaha et al. (2019);Experiment 1;Orientation;1
1;2;138.6171875;-43.3828125;9;2;40;300;1;Samaha et al. (2019);Experiment 1;Orientation;1
1;86;96.25;10.25;9;2;-84;301;1;Samaha et al. (2019);Experiment 1;Orientation;1
1;40;52.8671875;12.8671875;9;2;46;302;1;Samaha et al. (2019);Experiment 1;Orientation;1
1;114;120.3203125;6.3203125;9;2;-74;303;0;Samaha et al. (2019);Experiment 1;Orientation;1
1;177;51.625;54.625;9;2;-63;304;1;Samaha et al. (2019);Experiment 1;Orientation;1
1;26;56.0859375;30.0859375;9;2;-29;305;0;Samaha et al. (2019);Experiment 1;Orientation;1
1;147;160.796875;13.796875;9;2;59;306;0;Samaha et al. (2019);Experiment 1;Orientation;1
1;166;131.421875;-34.578125;9;2;-19;307;1;Samaha et al. (2019);Experiment 1;Orientation;1
1;52;46.6953125;-5.3046875;9;2;-66;308;1;Samaha et al. (2019);Experiment 1;Orientation;1
1;175;172.28125;-2.71875;9;2;57;309;1;Samaha et al. (2019);Experiment 1;Orientation;1
1;144;132.7109375;-11.2890625;9;2;31;310;1;Samaha et al. (2019);Experiment 1;Orientation;1
1;144;132.7109375;-11.2890625;9;2;0;311;0;Samaha et al. (2019);Experiment 1;Orientation;1
1;49;53.59375;4.59375;9;3;-85;501;1;Samaha et al. (2019);Experiment 1;Orientation;1
1;138;132.6484375;-5.3515625;9;3;-89;502;1;Samaha et al. (2019);Experiment 1;Orientation;1
1;49;51.921875;2.921875;9;3;89;503;0;Samaha et al. (2019);Experiment 1;Orientation;1
1;77;65.7890625;-11.2109375;9;3;-28;504;1;Samaha et al. (2019);Experiment 1;Orientation;1
1;97;82.3515625;-14.6484375;9;3;-20;505;0;Samaha et al. (2019);Experiment 1;Orientation;1
1;112;127.2421875;15.2421875;9;3;-15;506;0;Samaha et al. (2019);Experiment 1;Orientation;1
1;27;170.0234375;-36.9765625;9;3;85;507;0;Samaha et al. (2019);Experiment 1;Orientation;1
1;151;134.25;-16.75;9;3;56;508;1;Samaha et al. (2019);Experiment 1;Orientation;1
1;58;59.09375;1.09375;9;3;-87;509;0;Samaha et al. (2019);Experiment 1;Orientation;1
1;109;107.2578125;-1.7421875;9;3;-51;510;0;Samaha et al. (2019);Experiment 1;Orientation;1
1;144;138.265625;-5.734375;9;3;-35;511;1;Samaha et al. (2019);Experiment 1;Orientation;1
1;90;114.0546875;24.0546875;9;3;54;512;0;Samaha et al. (2019);Experiment 1;Orientation;1
1;95;102;7;9;3;-5;513;1;Samaha et al. (2019);Experiment 1;Orientation;1
1;62;63.390625;1.390625;9;3;33;514;0;Samaha et al. (2019);Experiment 1;Orientation;1
1;33;8.3671875;-24.6328125;9;3;29;515;0;Samaha et al. (2019);Experiment 1;Orientation;1
1;101;102.0390625;1.0390625;9;3;-68;516;0;Samaha et al. (2019);Experiment 1;Orientation;1
1;20;127.921875;-72.078125;9;3;81;517;1;Samaha et al. (2019);Experiment 1;Orientation;1
1;131;131.90625;0.90625;9;3;69;518;0;Samaha et al. (2019);Experiment 1;Orientation;1
1;141;140;-1;9;3;-10;519;1;Samaha et al. (2019);Experiment 1;Orientation;1
1;33;49.2578125;16.2578125;9;3;-72;520;0;Samaha et al. (2019);Experiment 1;Orientation;1
1;138;130;-8;9;3;75;521;0;Samaha et al. (2019);Experiment 1;Orientation;1
1;74;92;18;9;3;64;522;1;Samaha et al. (2019);Experiment 1;Orientation;1
1;69;54.9609375;-14.0390625;9;3;5;523;0;Samaha et al. (2019);Experiment 1;Orientation;1
1;126;164.9765625;38.9765625;9;3;-57;524;0;Samaha et al. (2019);Experiment 1;Orientation;1
1;64;66;2;9;3;62;525;0;Samaha et al. (2019);Experiment 1;Orientation;1
1;8;134.3671875;-53.6328125;9;3;56;526;1;Samaha et al. (2019);Experiment 1;Orientation;1
1;102;84.3046875;-17.6953125;9;3;86;527;0;Samaha et al. (2019);Experiment 1;Orientation;1
1;45;49.4609375;4.4609375;9;3;57;528;0;Samaha et al. (2019);Experiment 1;Orientation;1
1;131;130.0390625;-0.9609375;9;3;-86;529;1;Samaha et al. (2019);Experiment 1;Orientation;1
1;128;137.1953125;9.1953125;9;3;3;530;1;Samaha et al. (2019);Experiment 1;Orientation;1
1;76;68.0703125;-7.9296875;9;3;52;531;1;Samaha et al. (2019);Experiment 1;Orientation;1
1;157;148.9765625;-8.0234375;9;3;-81;532;0;Samaha et al. (2019);Experiment 1;Orientation;1
1;107;104.765625;-2.234375;9;3;50;533;1;Samaha et al. (2019);Experiment 1;Orientation;1
1;0;47.4921875;47.4921875;9;3;-73;534;0;Samaha et al. (2019);Experiment 1;Orientation;1
1;120;129.609375;9.609375;9;3;60;535;0;Samaha et al. (2019);Experiment 1;Orientation;1
1;19;72;53;9;3;-79;536;0;Samaha et al. (2019);Experiment 1;Orientation;1
1;142;132.46875;-9.53125;9;3;57;537;0;Samaha et al. (2019);Experiment 1;Orientation;1
1;17;34.546875;17.546875;9;3;-55;538;0;Samaha et al. (2019);Experiment 1;Orientation;1
1;89;75.1953125;-13.8046875;9;3;-72;539;1;Samaha et al. (2019);Experiment 1;Orientation;1
1;72;74.3828125;2.3828125;9;3;17;540;1;Samaha et al. (2019);Experiment 1;Orientation;1
1;165;161.2265625;-3.7734375;9;3;87;541;0;Samaha et al. (2019);Experiment 1;Orientation;1
1;95;78.75;-16.25;9;3;70;542;1;Samaha et al. (2019);Experiment 1;Orientation;1
1;144;139.65625;-4.34375;9;3;-49;543;1;Samaha et al. (2019);Experiment 1;Orientation;1
1;54;53.4609375;-0.5390625;9;3;90;544;1;Samaha et al. (2019);Experiment 1;Orientation;1
1;117;115.3125;-1.6875;9;3;-63;545;1;Samaha et al. (2019);Experiment 1;Orientation;1
1;121;137.875;16.875;9;3;-4;546;1;Samaha et al. (2019);Experiment 1;Orientation;1
1;169;168.0234375;-0.9765625;9;3;-48;547;0;Samaha et al. (2019);Experiment 1;Orientation;1
1;59;57.4921875;-1.5078125;9;3;-70;548;1;Samaha et al. (2019);Experiment 1;Orientation;1
1;35;48.8671875;13.8671875;9;3;24;549;0;Samaha et al. (2019);Experiment 1;Orientation;1
1;167;157.3125;-9.6875;9;3;48;550;1;Samaha et al. (2019);Experiment 1;Orientation;1
1;98;93.8203125;-4.1796875;9;3;69;551;0;Samaha et al. (2019);Experiment 1;Orientation;1
1;91;82.3203125;-8.6796875;9;3;7;552;1;Samaha et al. (2019);Experiment 1;Orientation;1
1;165;132.484375;-32.515625;9;3;-74;553;1;Samaha et al. (2019);Experiment 1;Orientation;1
1;99;99.4609375;0.4609375;9;3;66;554;1;Samaha et al. (2019);Experiment 1;Orientation;1
1;34;42.8984375;8.8984375;9;3;65;555;0;Samaha et al. (2019);Experiment 1;Orientation;1
1;41;39.40625;-1.59375;9;3;-7;556;1;Samaha et al. (2019);Experiment 1;Orientation;1
1;149;136.3203125;-12.6796875;9;3;72;557;0;Samaha et al. (2019);Experiment 1;Orientation;1
1;51;50.1328125;-0.8671875;9;3;-82;558;0;Samaha et al. (2019);Experiment 1;Orientation;1
1;135;103.8515625;-31.1484375;9;3;-84;559;1;Samaha et al. (2019);Experiment 1;Orientation;1
1;15;48.5625;33.5625;9;3;-60;560;1;Samaha et al. (2019);Experiment 1;Orientation;1
1;15;48.5625;33.5625;9;3;0;561;1;Samaha et al. (2019);Experiment 1;Orientation;1
1;35;131.890625;-83.109375;9;4;-20;751;1;Samaha et al. (2019);Experiment 1;Orientation;1
1;24;51.8046875;27.8046875;9;4;11;752;1;Samaha et al. (2019);Experiment 1;Orientation;1
1;176;119.4453125;-56.5546875;9;4;28;753;1;Samaha et al. (2019);Experiment 1;Orientation;1
1;108;122.9609375;14.9609375;9;4;68;754;1;Samaha et al. (2019);Experiment 1;Orientation;1
1;86;48.28125;-37.71875;9;4;22;755;0;Samaha et al. (2019);Experiment 1;Orientation;1
1;66;64;-2;9;4;20;756;0;Samaha et al. (2019);Experiment 1;Orientation;1
1;88;88.6953125;0.6953125;9;4;-22;757;0;Samaha et al. (2019);Experiment 1;Orientation;1
1;136;134.0546875;-1.9453125;9;4;-48;758;1;Samaha et al. (2019);Experiment 1;Orientation;1
1;122;129.8203125;7.8203125;9;4;14;759;1;Samaha et al. (2019);Experiment 1;Orientation;1
1;94;71.5703125;-22.4296875;9;4;28;760;1;Samaha et al. (2019);Experiment 1;Orientation;1
1;11;22.78125;11.78125;9;4;83;761;0;Samaha et al. (2019);Experiment 1;Orientation;1
1;155;138.546875;-16.453125;9;4;36;762;0;Samaha et al. (2019);Experiment 1;Orientation;1
1;100;97.5390625;-2.4609375;9;4;55;763;0;Samaha et al. (2019);Experiment 1;Orientation;1
1;136;134.1875;-1.8125;9;4;-36;764;1;Samaha et al. (2019);Experiment 1;Orientation;1
1;71;59.921875;-11.078125;9;4;65;765;1;Samaha et al. (2019);Experiment 1;Orientation;1
1;40;46.9765625;6.9765625;9;4;31;766;0;Samaha et al. (2019);Experiment 1;Orientation;1
1;163;157.359375;-5.640625;9;4;57;767;1;Samaha et al. (2019);Experiment 1;Orientation;1
1;84;58.453125;-25.546875;9;4;79;768;1;Samaha et al. (2019);Experiment 1;Orientation;1
1;119;123.5234375;4.5234375;9;4;-35;769;0;Samaha et al. (2019);Experiment 1;Orientation;1
1;47;59.1640625;12.1640625;9;4;72;770;1;Samaha et al. (2019);Experiment 1;Orientation;1
1;151;135.421875;-15.578125;9;4;76;771;1;Samaha et al. (2019);Experiment 1;Orientation;1
1;134;130.1015625;-3.8984375;9;4;17;772;1;Samaha et al. (2019);Experiment 1;Orientation;1
1;105;98.15625;-6.84375;9;4;29;773;1;Samaha et al. (2019);Experiment 1;Orientation;1
1;118;116.6953125;-1.3046875;9;4;-13;774;0;Samaha et al. (2019);Experiment 1;Orientation;1
1;34;120.25;86.25;9;4;84;775;0;Samaha et al. (2019);Experiment 1;Orientation;1
1;131;136.203125;5.203125;9;4;83;776;1;Samaha et al. (2019);Experiment 1;Orientation;1
1;20;30.4140625;10.4140625;9;4;-69;777;0;Samaha et al. (2019);Experiment 1;Orientation;1
1;41;60.75;19.75;9;4;-21;778;0;Samaha et al. (2019);Experiment 1;Orientation;1
1;153;161.4765625;8.4765625;9;4;68;779;0;Samaha et al. (2019);Experiment 1;Orientation;1
1;63;68.0078125;5.0078125;9;4;90;780;0;Samaha et al. (2019);Experiment 1;Orientation;1
1;169;168.46875;-0.53125;9;4;74;781;0;Samaha et al. (2019);Experiment 1;Orientation;1
1;32;47.015625;15.015625;9;4;-43;782;1;Samaha et al. (2019);Experiment 1;Orientation;1
1;16;42.9609375;26.9609375;9;4;16;783;1;Samaha et al. (2019);Experiment 1;Orientation;1
1;146;134.453125;-11.546875;9;4;50;784;1;Samaha et al. (2019);Experiment 1;Orientation;1
1;99;93.671875;-5.328125;9;4;47;785;0;Samaha et al. (2019);Experiment 1;Orientation;1
1;44;41.1953125;-2.8046875;9;4;55;786;0;Samaha et al. (2019);Experiment 1;Orientation;1
1;177;46.3359375;49.3359375;9;4;47;787;0;Samaha et al. (2019);Experiment 1;Orientation;1
1;102;112.4140625;10.4140625;9;4;75;788;1;Samaha et al. (2019);Experiment 1;Orientation;1
1;161;155.390625;-5.609375;9;4;-59;789;1;Samaha et al. (2019);Experiment 1;Orientation;1
1;71;64.53125;-6.46875;9;4;90;790;0;Samaha et al. (2019);Experiment 1;Orientation;1
1;66;86.8671875;20.8671875;9;4;5;791;0;Samaha et al. (2019);Experiment 1;Orientation;1
1;156;136.7109375;-19.2890625;9;4;-90;792;1;Samaha et al. (2019);Experiment 1;Orientation;1
1;3;80.21875;77.21875;9;4;-27;793;0;Samaha et al. (2019);Experiment 1;Orientation;1
1;105;120.5859375;15.5859375;9;4;78;794;0;Samaha et al. (2019);Experiment 1;Orientation;1
1;149;151.40625;2.40625;9;4;-44;795;1;Samaha et al. (2019);Experiment 1;Orientation;1
1;36;50.9765625;14.9765625;9;4;-67;796;1;Samaha et al. (2019);Experiment 1;Orientation;1
1;147;136.3203125;-10.6796875;9;4;69;797;1;Samaha et al. (2019);Experiment 1;Orientation;1
1;133;118.484375;-14.515625;9;4;14;798;0;Samaha et al. (2019);Experiment 1;Orientation;1
1;102;107.2578125;5.2578125;9;4;31;799;0;Samaha et al. (2019);Experiment 1;Orientation;1
1;49;39.8046875;-9.1953125;9;4;53;800;1;Samaha et al. (2019);Experiment 1;Orientation;1
1;67;59.109375;-7.890625;9;4;-18;801;1;Samaha et al. (2019);Experiment 1;Orientation;1
1;167;159.875;-7.125;9;4;80;802;1;Samaha et al. (2019);Experiment 1;Orientation;1
1;93;99.59375;6.59375;9;4;74;803;1;Samaha et al. (2019);Experiment 1;Orientation;1
1;62;57.890625;-4.109375;9;4;31;804;0;Samaha et al. (2019);Experiment 1;Orientation;1
1;86;77.078125;-8.921875;9;4;-24;805;0;Samaha et al. (2019);Experiment 1;Orientation;1
1;106;124.5625;18.5625;9;4;-20;806;0;Samaha et al. (2019);Experiment 1;Orientation;1
1;77;73.671875;-3.328125;9;4;29;807;1;Samaha et al. (2019);Experiment 1;Orientation;1
1;3;76.7109375;73.7109375;9;4;74;808;1;Samaha et al. (2019);Experiment 1;Orientation;1
1;71;53.2734375;-17.7265625;9;4;-68;809;1;Samaha et al. (2019);Experiment 1;Orientation;1
1;126;130.8125;4.8125;9;4;-55;810;1;Samaha et al. (2019);Experiment 1;Orientation;1
1;126;130.8125;4.8125;9;4;0;811;0;Samaha et al. (2019);Experiment 1;Orientation;1
1;95;98.546875;3.546875;9;5;31;1001;1;Samaha et al. (2019);Experiment 1;Orientation;1
1;17;59.7734375;42.7734375;9;5;78;1002;0;Samaha et al. (2019);Experiment 1;Orientation;1
1;63;57.34375;-5.65625;9;5;-46;1003;0;Samaha et al. (2019);Experiment 1;Orientation;1
1;119;124.3203125;5.3203125;9;5;-56;1004;1;Samaha et al. (2019);Experiment 1;Orientation;1
1;161;151.1953125;-9.8046875;9;5;-42;1005;0;Samaha et al. (2019);Experiment 1;Orientation;1
1;88;83.5390625;-4.4609375;9;5;73;1006;1;Samaha et al. (2019);Experiment 1;Orientation;1
1;143;139.390625;-3.609375;9;5;-55;1007;1;Samaha et al. (2019);Experiment 1;Orientation;1
1;60;61.921875;1.921875;9;5;83;1008;0;Samaha et al. (2019);Experiment 1;Orientation;1
1;165;151.5078125;-13.4921875;9;5;75;1009;1;Samaha et al. (2019);Experiment 1;Orientation;1
1;83;73.640625;-9.359375;9;5;82;1010;1;Samaha et al. (2019);Experiment 1;Orientation;1
1;18;13.140625;-4.859375;9;5;65;1011;1;Samaha et al. (2019);Experiment 1;Orientation;1
1;30;20;-10;9;5;-12;1012;1;Samaha et al. (2019);Experiment 1;Orientation;1
1;117;133.390625;16.390625;9;5;-87;1013;1;Samaha et al. (2019);Experiment 1;Orientation;1
1;74;92.3671875;18.3671875;9;5;43;1014;1;Samaha et al. (2019);Experiment 1;Orientation;1
1;43;51.953125;8.953125;9;5;31;1015;0;Samaha et al. (2019);Experiment 1;Orientation;1
1;172;139.96875;-32.03125;9;5;51;1016;1;Samaha et al. (2019);Experiment 1;Orientation;1
1;121;134.0859375;13.0859375;9;5;51;1017;0;Samaha et al. (2019);Experiment 1;Orientation;1
1;110;110.203125;0.203125;9;5;11;1018;1;Samaha et al. (2019);Experiment 1;Orientation;1
1;99;111.984375;12.984375;9;5;11;1019;0;Samaha et al. (2019);Experiment 1;Orientation;1
1;39;117.296875;78.296875;9;5;60;1020;0;Samaha et al. (2019);Experiment 1;Orientation;1
1;42;50.3359375;8.3359375;9;5;-3;1021;0;Samaha et al. (2019);Experiment 1;Orientation;1
1;103;120;17;9;5;-61;1022;1;Samaha et al. (2019);Experiment 1;Orientation;1
1;11;12.25;1.25;9;5;-88;1023;0;Samaha et al. (2019);Experiment 1;Orientation;1
1;77;61.8515625;-15.1484375;9;5;-66;1024;1;Samaha et al. (2019);Experiment 1;Orientation;1
1;148;137.1796875;-10.8203125;9;5;-71;1025;0;Samaha et al. (2019);Experiment 1;Orientation;1
1;15;49.421875;34.421875;9;5;-47;1026;0;Samaha et al. (2019);Experiment 1;Orientation;1
1;5;21.953125;16.953125;9;5;10;1027;0;Samaha et al. (2019);Experiment 1;Orientation;1
1;20;20.3828125;0.3828125;9;5;-15;1028;1;Samaha et al. (2019);Experiment 1;Orientation;1
1;98;102.6171875;4.6171875;9;5;-78;1029;0;Samaha et al. (2019);Experiment 1;Orientation;1
1;14;24.3984375;10.3984375;9;5;84;1030;1;Samaha et al. (2019);Experiment 1;Orientation;1
1;106;106.9765625;0.9765625;9;5;88;1031;0;Samaha et al. (2019);Experiment 1;Orientation;1
1;6;16.6953125;10.6953125;9;5;-80;1032;0;Samaha et al. (2019);Experiment 1;Orientation;1
1;64;143.328125;79.328125;9;5;-58;1033;0;Samaha et al. (2019);Experiment 1;Orientation;1
1;147;137.046875;-9.953125;9;5;-83;1034;0;Samaha et al. (2019);Experiment 1;Orientation;1
1;34;40.6796875;6.6796875;9;5;-67;1035;1;Samaha et al. (2019);Experiment 1;Orientation;1
1;97;104;7;9;5;-63;1036;1;Samaha et al. (2019);Experiment 1;Orientation;1
1;126;133.4765625;7.4765625;9;5;-29;1037;0;Samaha et al. (2019);Experiment 1;Orientation;1
1;107;110.453125;3.453125;9;5;19;1038;0;Samaha et al. (2019);Experiment 1;Orientation;1
1;38;7.09375;-30.90625;9;5;69;1039;0;Samaha et al. (2019);Experiment 1;Orientation;1
1;67;72.484375;5.484375;9;5;-29;1040;0;Samaha et al. (2019);Experiment 1;Orientation;1
1;88;78.7109375;-9.2890625;9;5;-21;1041;1;Samaha et al. (2019);Experiment 1;Orientation;1
1;122;166.3984375;44.3984375;9;5;-34;1042;1;Samaha et al. (2019);Experiment 1;Orientation;1
1;116;111.7890625;-4.2109375;9;5;6;1043;1;Samaha et al. (2019);Experiment 1;Orientation;1
1;90;14.5625;-75.4375;9;5;26;1044;1;Samaha et al. (2019);Experiment 1;Orientation;1
1;131;132.6171875;1.6171875;9;5;-41;1045;1;Samaha et al. (2019);Experiment 1;Orientation;1
1;68;43.984375;-24.015625;9;5;63;1046;0;Samaha et al. (2019);Experiment 1;Orientation;1
1;37;43.125;6.125;9;5;31;1047;0;Samaha et al. (2019);Experiment 1;Orientation;1
1;86;63.671875;-22.328125;9;5;-49;1048;0;Samaha et al. (2019);Experiment 1;Orientation;1
1;125;139.9375;14.9375;9;5;-39;1049;0;Samaha et al. (2019);Experiment 1;Orientation;1
1;7;122.6484375;-64.3515625;9;5;-62;1050;0;Samaha et al. (2019);Experiment 1;Orientation;1
1;8;56.0703125;48.0703125;9;5;-1;1051;1;Samaha et al. (2019);Experiment 1;Orientation;1
1;76;67.703125;-8.296875;9;5;-68;1052;0;Samaha et al. (2019);Experiment 1;Orientation;1
1;97;82.8671875;-14.1328125;9;5;-21;1053;0;Samaha et al. (2019);Experiment 1;Orientation;1
1;68;48.453125;-19.546875;9;5;29;1054;0;Samaha et al. (2019);Experiment 1;Orientation;1
1;31;149.1640625;-61.8359375;9;5;37;1055;1;Samaha et al. (2019);Experiment 1;Orientation;1
1;177;62.171875;65.171875;9;5;34;1056;1;Samaha et al. (2019);Experiment 1;Orientation;1
1;102;113.359375;11.359375;9;5;75;1057;1;Samaha et al. (2019);Experiment 1;Orientation;1
1;44;51.8203125;7.8203125;9;5;58;1058;0;Samaha et al. (2019);Experiment 1;Orientation;1
1;155;40;65;9;5;69;1059;0;Samaha et al. (2019);Experiment 1;Orientation;1
1;120;119.4765625;-0.5234375;9;5;35;1060;1;Samaha et al. (2019);Experiment 1;Orientation;1
1;120;119.4765625;-0.5234375;9;5;0;1061;1;Samaha et al. (2019);Experiment 1;Orientation;1
2;168;39.8359375;51.8359375;9;1;-48;1;0;Samaha et al. (2019);Experiment 1;Orientation;1
2;129;137.7578125;8.7578125;9;1;39;2;0;Samaha et al. (2019);Experiment 1;Orientation;1
2;73;58.3515625;-14.6484375;9;1;56;3;0;Samaha et al. (2019);Experiment 1;Orientation;1
2;63;65.5703125;2.5703125;9;1;10;4;0;Samaha et al. (2019);Experiment 1;Orientation;1
2;16;120;-76;9;1;47;5;1;Samaha et al. (2019);Experiment 1;Orientation;1
2;149;136.8984375;-12.1015625;9;1;47;6;0;Samaha et al. (2019);Experiment 1;Orientation;1
2;87;45.984375;-41.015625;9;1;62;7;0;Samaha et al. (2019);Experiment 1;Orientation;1
2;51;60;9;9;1;36;8;0;Samaha et al. (2019);Experiment 1;Orientation;1
2;26;39.8046875;13.8046875;9;1;25;9;0;Samaha et al. (2019);Experiment 1;Orientation;1
2;144;145.8046875;1.8046875;9;1;62;10;1;Samaha et al. (2019);Experiment 1;Orientation;1
2;104;101.640625;-2.359375;9;1;40;11;1;Samaha et al. (2019);Experiment 1;Orientation;1
2;18;61.2578125;43.2578125;9;1;86;12;1;Samaha et al. (2019);Experiment 1;Orientation;1
2;62;55.875;-6.125;9;1;-44;13;0;Samaha et al. (2019);Experiment 1;Orientation;1
2;36;154.5;-61.5;9;1;26;14;0;Samaha et al. (2019);Experiment 1;Orientation;1
2;33;32.0234375;-0.9765625;9;1;3;15;0;Samaha et al. (2019);Experiment 1;Orientation;1
2;130;141.2890625;11.2890625;9;1;83;16;1;Samaha et al. (2019);Experiment 1;Orientation;1
2;101;80.0859375;-20.9140625;9;1;29;17;1;Samaha et al. (2019);Experiment 1;Orientation;1
2;24;41.328125;17.328125;9;1;77;18;1;Samaha et al. (2019);Experiment 1;Orientation;1
2;19;19.03125;0.03125;9;1;5;19;1;Samaha et al. (2019);Experiment 1;Orientation;1
2;170;159.40625;-10.59375;9;1;29;20;1;Samaha et al. (2019);Experiment 1;Orientation;1
2;169;31.890625;42.890625;9;1;1;21;0;Samaha et al. (2019);Experiment 1;Orientation;1
2;123;131.1640625;8.1640625;9;1;46;22;0;Samaha et al. (2019);Experiment 1;Orientation;1
2;176;104.0546875;-71.9453125;9;1;-53;23;0;Samaha et al. (2019);Experiment 1;Orientation;1
2;152;108.8828125;-43.1171875;9;1;24;24;0;Samaha et al. (2019);Experiment 1;Orientation;1
2;176;7.8046875;11.8046875;9;1;-24;25;0;Samaha et al. (2019);Experiment 1;Orientation;1
2;29;119.125;-89.875;9;1;-33;26;1;Samaha et al. (2019);Experiment 1;Orientation;1
2;119;127.8359375;8.8359375;9;1;-90;27;1;Samaha et al. (2019);Experiment 1;Orientation;1
2;162;128.265625;-33.734375;9;1;-43;28;1;Samaha et al. (2019);Experiment 1;Orientation;1
2;104;104.6171875;0.6171875;9;1;58;29;0;Samaha et al. (2019);Experiment 1;Orientation;1
2;145;147.390625;2.390625;9;1;-41;30;0;Samaha et al. (2019);Experiment 1;Orientation;1
2;87;103.2265625;16.2265625;9;1;58;31;1;Samaha et al. (2019);Experiment 1;Orientation;1
2;44;36.0546875;-7.9453125;9;1;43;32;1;Samaha et al. (2019);Experiment 1;Orientation;1
2;130;146;16;9;1;-86;33;0;Samaha et al. (2019);Experiment 1;Orientation;1
2;30;20;-10;9;1;-80;34;1;Samaha et al. (2019);Experiment 1;Orientation;1
2;120;137.953125;17.953125;9;1;-90;35;1;Samaha et al. (2019);Experiment 1;Orientation;1
2;143;148.7109375;5.7109375;9;1;-23;36;0;Samaha et al. (2019);Experiment 1;Orientation;1
2;84;110;26;9;1;59;37;0;Samaha et al. (2019);Experiment 1;Orientation;1
2;100;75.5546875;-24.4453125;9;1;-16;38;0;Samaha et al. (2019);Experiment 1;Orientation;1
2;123;115.5546875;-7.4453125;9;1;-23;39;0;Samaha et al. (2019);Experiment 1;Orientation;1
2;151;134.0859375;-16.9140625;9;1;-28;40;0;Samaha et al. (2019);Experiment 1;Orientation;1
2;2;10.9921875;8.9921875;9;1;-31;41;0;Samaha et al. (2019);Experiment 1;Orientation;1
2;94;24.78125;-69.21875;9;1;88;42;1;Samaha et al. (2019);Experiment 1;Orientation;1
2;71;76.9765625;5.9765625;9;1;23;43;1;Samaha et al. (2019);Experiment 1;Orientation;1
2;165;148.9140625;-16.0859375;9;1;86;44;1;Samaha et al. (2019);Experiment 1;Orientation;1
2;175;160.6953125;-14.3046875;9;1;-10;45;0;Samaha et al. (2019);Experiment 1;Orientation;1
2;74;67.34375;-6.65625;9;1;-79;46;1;Samaha et al. (2019);Experiment 1;Orientation;1
2;65;151.4609375;86.4609375;9;1;9;47;1;Samaha et al. (2019);Experiment 1;Orientation;1
2;159;24.3359375;45.3359375;9;1;86;48;1;Samaha et al. (2019);Experiment 1;Orientation;1
2;89;65.7265625;-23.2734375;9;1;70;49;1;Samaha et al. (2019);Experiment 1;Orientation;1
2;69;65.96875;-3.03125;9;1;20;50;1;Samaha et al. (2019);Experiment 1;Orientation;1
2;135;145.65625;10.65625;9;1;-66;51;0;Samaha et al. (2019);Experiment 1;Orientation;1
2;33;35.2265625;2.2265625;9;1;-78;52;0;Samaha et al. (2019);Experiment 1;Orientation;1
2;51;43.09375;-7.90625;9;1;-18;53;1;Samaha et al. (2019);Experiment 1;Orientation;1
2;122;41.2578125;-80.7421875;9;1;-71;54;0;Samaha et al. (2019);Experiment 1;Orientation;1
2;117;125.7890625;8.7890625;9;1;5;55;1;Samaha et al. (2019);Experiment 1;Orientation;1
2;11;31.4453125;20.4453125;9;1;-74;56;0;Samaha et al. (2019);Experiment 1;Orientation;1
2;98;111.4765625;13.4765625;9;1;-87;57;1;Samaha et al. (2019);Experiment 1;Orientation;1
2;101;45.9375;-55.0625;9;1;-3;58;1;Samaha et al. (2019);Experiment 1;Orientation;1
2;132;36.1015625;84.1015625;9;1;-31;59;1;Samaha et al. (2019);Experiment 1;Orientation;1
2;29;37.2421875;8.2421875;9;1;-77;60;0;Samaha et al. (2019);Experiment 1;Orientation;1
2;29;37.2421875;8.2421875;9;1;0;61;1;Samaha et al. (2019);Experiment 1;Orientation;1
2;70;64;-6;9;2;-41;251;0;Samaha et al. (2019);Experiment 1;Orientation;1
2;92;54.53125;-37.46875;9;2;-22;252;0;Samaha et al. (2019);Experiment 1;Orientation;1
2;179;58.9453125;59.9453125;9;2;-87;253;1;Samaha et al. (2019);Experiment 1;Orientation;1
2;151;146.828125;-4.171875;9;2;28;254;1;Samaha et al. (2019);Experiment 1;Orientation;1
2;99;57.625;-41.375;9;2;52;255;0;Samaha et al. (2019);Experiment 1;Orientation;1
2;57;46.3671875;-10.6328125;9;2;42;256;0;Samaha et al. (2019);Experiment 1;Orientation;1
2;142;144.78125;2.78125;9;2;-85;257;0;Samaha et al. (2019);Experiment 1;Orientation;1
2;84;66;-18;9;2;58;258;1;Samaha et al. (2019);Experiment 1;Orientation;1
2;132;139.390625;7.390625;9;2;-48;259;1;Samaha et al. (2019);Experiment 1;Orientation;1
2;100;26.9140625;-73.0859375;9;2;32;260;1;Samaha et al. (2019);Experiment 1;Orientation;1
2;94;112.6953125;18.6953125;9;2;6;261;0;Samaha et al. (2019);Experiment 1;Orientation;1
2;28;58.6953125;30.6953125;9;2;66;262;0;Samaha et al. (2019);Experiment 1;Orientation;1
2;44;67.5078125;23.5078125;9;2;-16;263;1;Samaha et al. (2019);Experiment 1;Orientation;1
2;87;139.34375;52.34375;9;2;-43;264;0;Samaha et al. (2019);Experiment 1;Orientation;1
2;88;126;38;9;2;-1;265;0;Samaha et al. (2019);Experiment 1;Orientation;1
2;171;44.75;53.75;9;2;-83;266;0;Samaha et al. (2019);Experiment 1;Orientation;1
2;35;119.984375;84.984375;9;2;-44;267;1;Samaha et al. (2019);Experiment 1;Orientation;1
2;142;137.1953125;-4.8046875;9;2;73;268;0;Samaha et al. (2019);Experiment 1;Orientation;1
2;66;124;58;9;2;76;269;0;Samaha et al. (2019);Experiment 1;Orientation;1
2;153;130.515625;-22.484375;9;2;-87;270;1;Samaha et al. (2019);Experiment 1;Orientation;1
2;23;28.453125;5.453125;9;2;-50;271;1;Samaha et al. (2019);Experiment 1;Orientation;1
2;74;42.5625;-31.4375;9;2;-51;272;1;Samaha et al. (2019);Experiment 1;Orientation;1
2;32;27.03125;-4.96875;9;2;42;273;1;Samaha et al. (2019);Experiment 1;Orientation;1
2;23;37.8359375;14.8359375;9;2;9;274;0;Samaha et al. (2019);Experiment 1;Orientation;1
2;162;40.15625;58.15625;9;2;41;275;1;Samaha et al. (2019);Experiment 1;Orientation;1
2;159;42;63;9;2;3;276;1;Samaha et al. (2019);Experiment 1;Orientation;1
2;28;27.5546875;-0.4453125;9;2;-49;277;0;Samaha et al. (2019);Experiment 1;Orientation;1
2;6;44.6640625;38.6640625;9;2;22;278;1;Samaha et al. (2019);Experiment 1;Orientation;1
2;2;135.2421875;-46.7578125;9;2;4;279;0;Samaha et al. (2019);Experiment 1;Orientation;1
2;139;159.296875;20.296875;9;2;43;280;1;Samaha et al. (2019);Experiment 1;Orientation;1
2;176;16.171875;20.171875;9;2;-37;281;0;Samaha et al. (2019);Experiment 1;Orientation;1
2;144;135.6875;-8.3125;9;2;32;282;1;Samaha et al. (2019);Experiment 1;Orientation;1
2;91;72.1015625;-18.8984375;9;2;53;283;1;Samaha et al. (2019);Experiment 1;Orientation;1
2;46;43.96875;-2.03125;9;2;45;284;0;Samaha et al. (2019);Experiment 1;Orientation;1
2;59;59.34375;0.34375;9;2;-13;285;1;Samaha et al. (2019);Experiment 1;Orientation;1
2;172;163.1796875;-8.8203125;9;2;67;286;1;Samaha et al. (2019);Experiment 1;Orientation;1
2;165;161.8046875;-3.1953125;9;2;7;287;0;Samaha et al. (2019);Experiment 1;Orientation;1
2;125;153.5390625;28.5390625;9;2;40;288;1;Samaha et al. (2019);Experiment 1;Orientation;1
2;147;138.3203125;-8.6796875;9;2;-22;289;1;Samaha et al. (2019);Experiment 1;Orientation;1
2;68;46.75;-21.25;9;2;79;290;1;Samaha et al. (2019);Experiment 1;Orientation;1
2;21;77.59375;56.59375;9;2;47;291;0;Samaha et al. (2019);Experiment 1;Orientation;1
2;118;123.90625;5.90625;9;2;83;292;0;Samaha et al. (2019);Experiment 1;Orientation;1
2;28;29.390625;1.390625;9;2;90;293;1;Samaha et al. (2019);Experiment 1;Orientation;1
2;177;100;-77;9;2;31;294;0;Samaha et al. (2019);Experiment 1;Orientation;1
2;131;147.984375;16.984375;9;2;46;295;1;Samaha et al. (2019);Experiment 1;Orientation;1
2;107;110.6171875;3.6171875;9;2;24;296;0;Samaha et al. (2019);Experiment 1;Orientation;1
2;84;68.9609375;-15.0390625;9;2;23;297;0;Samaha et al. (2019);Experiment 1;Orientation;1
2;84;74;-10;9;2;0;298;1;Samaha et al. (2019);Experiment 1;Orientation;1
2;28;23.7734375;-4.2265625;9;2;56;299;0;Samaha et al. (2019);Experiment 1;Orientation;1
2;141;143.2734375;2.2734375;9;2;67;300;1;Samaha et al. (2019);Experiment 1;Orientation;1
2;167;35.015625;48.015625;9;2;-26;301;0;Samaha et al. (2019);Experiment 1;Orientation;1
2;44;33.5234375;-10.4765625;9;2;-57;302;1;Samaha et al. (2019);Experiment 1;Orientation;1
2;13;28.8828125;15.8828125;9;2;31;303;0;Samaha et al. (2019);Experiment 1;Orientation;1
2;44;39.625;-4.375;9;2;-31;304;0;Samaha et al. (2019);Experiment 1;Orientation;1
2;151;139.4609375;-11.5390625;9;2;73;305;1;Samaha et al. (2019);Experiment 1;Orientation;1
2;35;35.7578125;0.7578125;9;2;-64;306;1;Samaha et al. (2019);Experiment 1;Orientation;1
2;91;130.9921875;39.9921875;9;2;-56;307;1;Samaha et al. (2019);Experiment 1;Orientation;1
2;105;130.6640625;25.6640625;9;2;-14;308;0;Samaha et al. (2019);Experiment 1;Orientation;1
2;67;41.8359375;-25.1640625;9;2;38;309;1;Samaha et al. (2019);Experiment 1;Orientation;1
2;5;42.9609375;37.9609375;9;2;62;310;0;Samaha et al. (2019);Experiment 1;Orientation;1
2;5;42.9609375;37.9609375;9;2;0;311;0;Samaha et al. (2019);Experiment 1;Orientation;1
2;113;128.6796875;15.6796875;9;3;72;501;1;Samaha et al. (2019);Experiment 1;Orientation;1
2;146;141.7890625;-4.2109375;9;3;-33;502;0;Samaha et al. (2019);Experiment 1;Orientation;1
2;27;145.953125;-61.046875;9;3;-61;503;1;Samaha et al. (2019);Experiment 1;Orientation;1
2;91;124.3046875;33.3046875;9;3;-64;504;0;Samaha et al. (2019);Experiment 1;Orientation;1
2;84;78.6328125;-5.3671875;9;3;7;505;1;Samaha et al. (2019);Experiment 1;Orientation;1
2;118;128.453125;10.453125;9;3;-34;506;0;Samaha et al. (2019);Experiment 1;Orientation;1
2;57;55.7578125;-1.2421875;9;3;61;507;1;Samaha et al. (2019);Experiment 1;Orientation;1
2;153;82.9296875;-70.0703125;9;3;84;508;0;Samaha et al. (2019);Experiment 1;Orientation;1
2;139;143.8359375;4.8359375;9;3;14;509;1;Samaha et al. (2019);Experiment 1;Orientation;1
2;65;103.359375;38.359375;9;3;74;510;0;Samaha et al. (2019);Experiment 1;Orientation;1
2;165;139.7265625;-25.2734375;9;3;80;511;0;Samaha et al. (2019);Experiment 1;Orientation;1
2;165;143.96875;-21.03125;9;3;0;512;0;Samaha et al. (2019);Experiment 1;Orientation;1
2;158;134.453125;-23.546875;9;3;7;513;1;Samaha et al. (2019);Experiment 1;Orientation;1
2;33;36.4375;3.4375;9;3;-55;514;0;Samaha et al. (2019);Experiment 1;Orientation;1
2;4;19.59375;15.59375;9;3;29;515;0;Samaha et al. (2019);Experiment 1;Orientation;1
2;101;111.5234375;10.5234375;9;3;83;516;0;Samaha et al. (2019);Experiment 1;Orientation;1
2;146;122.78125;-23.21875;9;3;-45;517;1;Samaha et al. (2019);Experiment 1;Orientation;1
2;172;104.234375;-67.765625;9;3;-26;518;0;Samaha et al. (2019);Experiment 1;Orientation;1
2;69;33.125;-35.875;9;3;-77;519;0;Samaha et al. (2019);Experiment 1;Orientation;1
2;35;4;-31;9;3;34;520;0;Samaha et al. (2019);Experiment 1;Orientation;1
2;127;137.7734375;10.7734375;9;3;88;521;1;Samaha et al. (2019);Experiment 1;Orientation;1
2;96;111.328125;15.328125;9;3;31;522;1;Samaha et al. (2019);Experiment 1;Orientation;1
2;75;107.4921875;32.4921875;9;3;21;523;0;Samaha et al. (2019);Experiment 1;Orientation;1
2;72;80;8;9;3;3;524;1;Samaha et al. (2019);Experiment 1;Orientation;1
2;149;143.421875;-5.578125;9;3;-77;525;1;Samaha et al. (2019);Experiment 1;Orientation;1
2;11;20.0078125;9.0078125;9;3;-42;526;0;Samaha et al. (2019);Experiment 1;Orientation;1
2;160;147.90625;-12.09375;9;3;31;527;1;Samaha et al. (2019);Experiment 1;Orientation;1
2;154;24.6328125;50.6328125;9;3;6;528;0;Samaha et al. (2019);Experiment 1;Orientation;1
2;156;149.1953125;-6.8046875;9;3;-2;529;0;Samaha et al. (2019);Experiment 1;Orientation;1
2;66;59.4765625;-6.5234375;9;3;90;530;1;Samaha et al. (2019);Experiment 1;Orientation;1
2;20;30.765625;10.765625;9;3;46;531;0;Samaha et al. (2019);Experiment 1;Orientation;1
2;162;111.390625;-50.609375;9;3;38;532;0;Samaha et al. (2019);Experiment 1;Orientation;1
2;22;28.75;6.75;9;3;-40;533;1;Samaha et al. (2019);Experiment 1;Orientation;1
2;113;116.546875;3.546875;9;3;89;534;0;Samaha et al. (2019);Experiment 1;Orientation;1
2;8;26.828125;18.828125;9;3;-75;535;1;Samaha et al. (2019);Experiment 1;Orientation;1
2;8;37.1796875;29.1796875;9;3;0;536;0;Samaha et al. (2019);Experiment 1;Orientation;1
2;13;41.046875;28.046875;9;3;-5;537;1;Samaha et al. (2019);Experiment 1;Orientation;1
2;108;25.90625;-82.09375;9;3;85;538;0;Samaha et al. (2019);Experiment 1;Orientation;1
2;121;163.09375;42.09375;9;3;-13;539;1;Samaha et al. (2019);Experiment 1;Orientation;1
2;22;24.28125;2.28125;9;3;-81;540;1;Samaha et al. (2019);Experiment 1;Orientation;1
2;116;103.5234375;-12.4765625;9;3;86;541;0;Samaha et al. (2019);Experiment 1;Orientation;1
2;114;37.953125;-76.046875;9;3;2;542;1;Samaha et al. (2019);Experiment 1;Orientation;1
2;19;38;19;9;3;-85;543;1;Samaha et al. (2019);Experiment 1;Orientation;1
2;27;17.4765625;-9.5234375;9;3;-8;544;1;Samaha et al. (2019);Experiment 1;Orientation;1
2;97;49.953125;-47.046875;9;3;-70;545;1;Samaha et al. (2019);Experiment 1;Orientation;1
2;15;29.59375;14.59375;9;3;82;546;1;Samaha et al. (2019);Experiment 1;Orientation;1
2;101;122.8828125;21.8828125;9;3;-86;547;1;Samaha et al. (2019);Experiment 1;Orientation;1
2;42;19.640625;-22.359375;9;3;59;548;1;Samaha et al. (2019);Experiment 1;Orientation;1
2;52;39.4453125;-12.5546875;9;3;-10;549;0;Samaha et al. (2019);Experiment 1;Orientation;1
2;28;33.5703125;5.5703125;9;3;24;550;1;Samaha et al. (2019);Experiment 1;Orientation;1
2;74;68.5859375;-5.4140625;9;3;-46;551;1;Samaha et al. (2019);Experiment 1;Orientation;1
2;156;143.65625;-12.34375;9;3;-82;552;0;Samaha et al. (2019);Experiment 1;Orientation;1
2;132;97.2265625;-34.7734375;9;3;24;553;0;Samaha et al. (2019);Experiment 1;Orientation;1
2;77;71.6875;-5.3125;9;3;55;554;0;Samaha et al. (2019);Experiment 1;Orientation;1
2;59;129.7734375;70.7734375;9;3;18;555;1;Samaha et al. (2019);Experiment 1;Orientation;1
2;5;145.390625;-39.609375;9;3;54;556;0;Samaha et al. (2019);Experiment 1;Orientation;1
2;37;30.4296875;-6.5703125;9;3;-32;557;0;Samaha et al. (2019);Experiment 1;Orientation;1
2;0;12.1171875;12.1171875;9;3;37;558;1;Samaha et al. (2019);Experiment 1;Orientation;1
2;169;127.125;-41.875;9;3;11;559;0;Samaha et al. (2019);Experiment 1;Orientation;1
2;89;110.515625;21.515625;9;3;80;560;1;Samaha et al. (2019);Experiment 1;Orientation;1
2;89;110.515625;21.515625;9;3;0;561;0;Samaha et al. (2019);Experiment 1;Orientation;1
2;57;50.4140625;-6.5859375;9;4;32;751;1;Samaha et al. (2019);Experiment 1;Orientation;1
2;137;146.6640625;9.6640625;9;4;-80;752;0;Samaha et al. (2019);Experiment 1;Orientation;1
2;114;144.4375;30.4375;9;4;23;753;1;Samaha et al. (2019);Experiment 1;Orientation;1
2;84;64;-20;9;4;30;754;0;Samaha et al. (2019);Experiment 1;Orientation;1
2;106;123.890625;17.890625;9;4;-22;755;0;Samaha et al. (2019);Experiment 1;Orientation;1
2;52;73.1796875;21.1796875;9;4;54;756;0;Samaha et al. (2019);Experiment 1;Orientation;1
2;141;140.6328125;-0.3671875;9;4;-89;757;1;Samaha et al. (2019);Experiment 1;Orientation;1
2;78;146.0234375;68.0234375;9;4;63;758;0;Samaha et al. (2019);Experiment 1;Orientation;1
2;97;120.9921875;23.9921875;9;4;-19;759;1;Samaha et al. (2019);Experiment 1;Orientation;1
2;176;115.59375;-60.40625;9;4;-79;760;1;Samaha et al. (2019);Experiment 1;Orientation;1
2;122;115.015625;-6.984375;9;4;54;761;0;Samaha et al. (2019);Experiment 1;Orientation;1
2;150;52.5859375;82.5859375;9;4;-28;762;1;Samaha et al. (2019);Experiment 1;Orientation;1
2;101;107.6875;6.6875;9;4;49;763;0;Samaha et al. (2019);Experiment 1;Orientation;1
2;44;29.1953125;-14.8046875;9;4;57;764;1;Samaha et al. (2019);Experiment 1;Orientation;1
2;142;132.5625;-9.4375;9;4;82;765;0;Samaha et al. (2019);Experiment 1;Orientation;1
2;84;117.078125;33.078125;9;4;58;766;0;Samaha et al. (2019);Experiment 1;Orientation;1
2;176;147.046875;-28.953125;9;4;88;767;0;Samaha et al. (2019);Experiment 1;Orientation;1
2;123;144.0390625;21.0390625;9;4;53;768;0;Samaha et al. (2019);Experiment 1;Orientation;1
2;4;144.1171875;-39.8828125;9;4;-61;769;0;Samaha et al. (2019);Experiment 1;Orientation;1
2;176;176.0390625;0.0390625;9;4;8;770;0;Samaha et al. (2019);Experiment 1;Orientation;1
2;3;17.296875;14.296875;9;4;-7;771;1;Samaha et al. (2019);Experiment 1;Orientation;1
2;17;27.40625;10.40625;9;4;-14;772;1;Samaha et al. (2019);Experiment 1;Orientation;1
2;58;65.2265625;7.2265625;9;4;-41;773;1;Samaha et al. (2019);Experiment 1;Orientation;1
2;9;24;15;9;4;49;774;0;Samaha et al. (2019);Experiment 1;Orientation;1
2;35;57.9375;22.9375;9;4;-26;775;0;Samaha et al. (2019);Experiment 1;Orientation;1
2;121;70;-51;9;4;-86;776;0;Samaha et al. (2019);Experiment 1;Orientation;1
2;170;141.5234375;-28.4765625;9;4;-49;777;0;Samaha et al. (2019);Experiment 1;Orientation;1
2;36;40.796875;4.796875;9;4;-46;778;0;Samaha et al. (2019);Experiment 1;Orientation;1
2;57;60;3;9;4;-21;779;0;Samaha et al. (2019);Experiment 1;Orientation;1
2;17;35.890625;18.890625;9;4;40;780;0;Samaha et al. (2019);Experiment 1;Orientation;1
2;104;44;-60;9;4;-87;781;1;Samaha et al. (2019);Experiment 1;Orientation;1
2;76;59.2265625;-16.7734375;9;4;28;782;1;Samaha et al. (2019);Experiment 1;Orientation;1
2;18;31.96875;13.96875;9;4;58;783;1;Samaha et al. (2019);Experiment 1;Orientation;1
2;7;25.703125;18.703125;9;4;11;784;1;Samaha et al. (2019);Experiment 1;Orientation;1
2;19;26;7;9;4;-12;785;0;Samaha et al. (2019);Experiment 1;Orientation;1
2;146;138.15625;-7.84375;9;4;53;786;1;Samaha et al. (2019);Experiment 1;Orientation;1
2;110;132.1171875;22.1171875;9;4;36;787;1;Samaha et al. (2019);Experiment 1;Orientation;1
2;177;22.3515625;25.3515625;9;4;-67;788;1;Samaha et al. (2019);Experiment 1;Orientation;1
2;143;148.6484375;5.6484375;9;4;34;789;0;Samaha et al. (2019);Experiment 1;Orientation;1
2;161;150.6328125;-10.3671875;9;4;-18;790;1;Samaha et al. (2019);Experiment 1;Orientation;1
2;157;134.6171875;-22.3828125;9;4;4;791;1;Samaha et al. (2019);Experiment 1;Orientation;1
2;157;124.28125;-32.71875;9;4;0;792;1;Samaha et al. (2019);Experiment 1;Orientation;1
2;100;110.734375;10.734375;9;4;57;793;1;Samaha et al. (2019);Experiment 1;Orientation;1
2;42;165.90625;-56.09375;9;4;58;794;1;Samaha et al. (2019);Experiment 1;Orientation;1
2;75;36.0859375;-38.9140625;9;4;-33;795;1;Samaha et al. (2019);Experiment 1;Orientation;1
2;34;29.5546875;-4.4453125;9;4;41;796;0;Samaha et al. (2019);Experiment 1;Orientation;1
2;36;50.171875;14.171875;9;4;-2;797;0;Samaha et al. (2019);Experiment 1;Orientation;1
2;162;142.453125;-19.546875;9;4;54;798;1;Samaha et al. (2019);Experiment 1;Orientation;1
2;43;42.3828125;-0.6171875;9;4;-61;799;1;Samaha et al. (2019);Experiment 1;Orientation;1
2;25;48.3515625;23.3515625;9;4;18;800;1;Samaha et al. (2019);Experiment 1;Orientation;1
2;101;78.5625;-22.4375;9;4;-76;801;1;Samaha et al. (2019);Experiment 1;Orientation;1
2;83;118.21875;35.21875;9;4;18;802;0;Samaha et al. (2019);Experiment 1;Orientation;1
2;97;97.5078125;0.5078125;9;4;-14;803;0;Samaha et al. (2019);Experiment 1;Orientation;1
2;23;53.1796875;30.1796875;9;4;74;804;1;Samaha et al. (2019);Experiment 1;Orientation;1
2;99;99.4765625;0.4765625;9;4;-76;805;1;Samaha et al. (2019);Experiment 1;Orientation;1
2;140;135.2734375;-4.7265625;9;4;-41;806;1;Samaha et al. (2019);Experiment 1;Orientation;1
2;125;71.046875;-53.953125;9;4;15;807;1;Samaha et al. (2019);Experiment 1;Orientation;1
2;5;172.5;-12.5;9;4;-60;808;0;Samaha et al. (2019);Experiment 1;Orientation;1
2;158;160.0703125;2.0703125;9;4;27;809;0;Samaha et al. (2019);Experiment 1;Orientation;1
2;130;102.484375;-27.515625;9;4;28;810;0;Samaha et al. (2019);Experiment 1;Orientation;1
2;130;102.484375;-27.515625;9;4;0;811;0;Samaha et al. (2019);Experiment 1;Orientation;1
2;21;38.6171875;17.6171875;9;5;-71;1001;0;Samaha et al. (2019);Experiment 1;Orientation;1
2;137;135.015625;-1.984375;9;5;64;1002;1;Samaha et al. (2019);Experiment 1;Orientation;1
2;113;111.8203125;-1.1796875;9;5;24;1003;1;Samaha et al. (2019);Experiment 1;Orientation;1
2;14;64.25;50.25;9;5;-81;1004;1;Samaha et al. (2019);Experiment 1;Orientation;1
2;178;166.0859375;-11.9140625;9;5;16;1005;1;Samaha et al. (2019);Experiment 1;Orientation;1
2;121;134;13;9;5;57;1006;1;Samaha et al. (2019);Experiment 1;Orientation;1
2;37;46.171875;9.171875;9;5;84;1007;1;Samaha et al. (2019);Experiment 1;Orientation;1
2;48;47.59375;-0.40625;9;5;-11;1008;1;Samaha et al. (2019);Experiment 1;Orientation;1
2;178;42;44;9;5;50;1009;0;Samaha et al. (2019);Experiment 1;Orientation;1
2;135;138.546875;3.546875;9;5;43;1010;1;Samaha et al. (2019);Experiment 1;Orientation;1
2;17;74;57;9;5;-62;1011;1;Samaha et al. (2019);Experiment 1;Orientation;1
2;17;124;-73;9;5;0;1012;1;Samaha et al. (2019);Experiment 1;Orientation;1
2;100;80.9609375;-19.0390625;9;5;-83;1013;1;Samaha et al. (2019);Experiment 1;Orientation;1
2;141;130.203125;-10.796875;9;5;-41;1014;0;Samaha et al. (2019);Experiment 1;Orientation;1
2;117;139.359375;22.359375;9;5;24;1015;0;Samaha et al. (2019);Experiment 1;Orientation;1
2;161;132.5;-28.5;9;5;-44;1016;0;Samaha et al. (2019);Experiment 1;Orientation;1
2;131;105.921875;-25.078125;9;5;30;1017;0;Samaha et al. (2019);Experiment 1;Orientation;1
2;175;141.328125;-33.671875;9;5;-44;1018;1;Samaha et al. (2019);Experiment 1;Orientation;1
2;179;169.046875;-9.953125;9;5;-4;1019;0;Samaha et al. (2019);Experiment 1;Orientation;1
2;61;104.78125;43.78125;9;5;-62;1020;0;Samaha et al. (2019);Experiment 1;Orientation;1
2;173;39.40625;46.40625;9;5;68;1021;1;Samaha et al. (2019);Experiment 1;Orientation;1
2;129;120.9609375;-8.0390625;9;5;44;1022;1;Samaha et al. (2019);Experiment 1;Orientation;1
2;115;100;-15;9;5;14;1023;1;Samaha et al. (2019);Experiment 1;Orientation;1
2;131;131.890625;0.890625;9;5;-16;1024;1;Samaha et al. (2019);Experiment 1;Orientation;1
2;77;108.9921875;31.9921875;9;5;54;1025;0;Samaha et al. (2019);Experiment 1;Orientation;1
2;59;55.2265625;-3.7734375;9;5;18;1026;0;Samaha et al. (2019);Experiment 1;Orientation;1
2;40;44.4140625;4.4140625;9;5;19;1027;1;Samaha et al. (2019);Experiment 1;Orientation;1
2;167;55.0625;68.0625;9;5;53;1028;1;Samaha et al. (2019);Experiment 1;Orientation;1
2;16;17.5234375;1.5234375;9;5;-29;1029;1;Samaha et al. (2019);Experiment 1;Orientation;1
2;102;104.796875;2.796875;9;5;-86;1030;1;Samaha et al. (2019);Experiment 1;Orientation;1
2;143;102.3046875;-40.6953125;9;5;-41;1031;0;Samaha et al. (2019);Experiment 1;Orientation;1
2;35;17.8359375;-17.1640625;9;5;-72;1032;0;Samaha et al. (2019);Experiment 1;Orientation;1
2;102;32.5625;-69.4375;9;5;-67;1033;0;Samaha et al. (2019);Experiment 1;Orientation;1
2;149;135.90625;-13.09375;9;5;-47;1034;1;Samaha et al. (2019);Experiment 1;Orientation;1
2;126;130;4;9;5;23;1035;1;Samaha et al. (2019);Experiment 1;Orientation;1
2;168;31.375;43.375;9;5;-42;1036;1;Samaha et al. (2019);Experiment 1;Orientation;1
2;96;100;4;9;5;72;1037;0;Samaha et al. (2019);Experiment 1;Orientation;1
2;164;14.46875;30.46875;9;5;-68;1038;1;Samaha et al. (2019);Experiment 1;Orientation;1
2;51;84.6640625;33.6640625;9;5;-67;1039;0;Samaha et al. (2019);Experiment 1;Orientation;1
2;91;114.7109375;23.7109375;9;5;-40;1040;0;Samaha et al. (2019);Experiment 1;Orientation;1
2;96;109.421875;13.421875;9;5;-5;1041;1;Samaha et al. (2019);Experiment 1;Orientation;1
2;45;35.8359375;-9.1640625;9;5;51;1042;1;Samaha et al. (2019);Experiment 1;Orientation;1
2;3;37.7734375;34.7734375;9;5;42;1043;0;Samaha et al. (2019);Experiment 1;Orientation;1
2;162;51.4453125;69.4453125;9;5;21;1044;0;Samaha et al. (2019);Experiment 1;Orientation;1
2;110;129.8046875;19.8046875;9;5;52;1045;0;Samaha et al. (2019);Experiment 1;Orientation;1
2;10;58.46875;48.46875;9;5;-80;1046;0;Samaha et al. (2019);Experiment 1;Orientation;1
2;65;60.5859375;-4.4140625;9;5;-55;1047;1;Samaha et al. (2019);Experiment 1;Orientation;1
2;92;68.171875;-23.828125;9;5;-27;1048;0;Samaha et al. (2019);Experiment 1;Orientation;1
2;87;139.65625;52.65625;9;5;5;1049;0;Samaha et al. (2019);Experiment 1;Orientation;1
2;15;22;7;9;5;72;1050;1;Samaha et al. (2019);Experiment 1;Orientation;1
2;32;28.84375;-3.15625;9;5;-17;1051;1;Samaha et al. (2019);Experiment 1;Orientation;1
2;166;141.7578125;-24.2421875;9;5;46;1052;1;Samaha et al. (2019);Experiment 1;Orientation;1
2;2;18.9140625;16.9140625;9;5;-16;1053;0;Samaha et al. (2019);Experiment 1;Orientation;1
2;9;17.7421875;8.7421875;9;5;-7;1054;1;Samaha et al. (2019);Experiment 1;Orientation;1
2;53;40.1328125;-12.8671875;9;5;-44;1055;0;Samaha et al. (2019);Experiment 1;Orientation;1
2;12;20;8;9;5;41;1056;0;Samaha et al. (2019);Experiment 1;Orientation;1
2;175;38.3359375;43.3359375;9;5;17;1057;0;Samaha et al. (2019);Experiment 1;Orientation;1
2;101;40.5;-60.5;9;5;74;1058;1;Samaha et al. (2019);Experiment 1;Orientation;1
2;11;136.9921875;-54.0078125;9;5;90;1059;1;Samaha et al. (2019);Experiment 1;Orientation;1
2;142;53.0625;-88.9375;9;5;49;1060;0;Samaha et al. (2019);Experiment 1;Orientation;1
2;142;53.0625;-88.9375;9;5;0;1061;1;Samaha et al. (2019);Experiment 1;Orientation;1
3;45;50.3984375;5.3984375;9;1;-83;1;1;Samaha et al. (2019);Experiment 1;Orientation;1
3;23;45.125;22.125;9;1;22;2;1;Samaha et al. (2019);Experiment 1;Orientation;1
3;23;31.640625;8.640625;9;1;0;3;0;Samaha et al. (2019);Experiment 1;Orientation;1
3;124;131.6875;7.6875;9;1;79;4;0;Samaha et al. (2019);Experiment 1;Orientation;1
3;23;28.9296875;5.9296875;9;1;-79;5;1;Samaha et al. (2019);Experiment 1;Orientation;1
3;104;108.484375;4.484375;9;1;-81;6;0;Samaha et al. (2019);Experiment 1;Orientation;1
3;64;60.171875;-3.828125;9;1;40;7;1;Samaha et al. (2019);Experiment 1;Orientation;1
3;109;117.7265625;8.7265625;9;1;-45;8;1;Samaha et al. (2019);Experiment 1;Orientation;1
3;131;120.8828125;-10.1171875;9;1;-22;9;1;Samaha et al. (2019);Experiment 1;Orientation;1
3;95;111.03125;16.03125;9;1;36;10;1;Samaha et al. (2019);Experiment 1;Orientation;1
3;23;22.3828125;-0.6171875;9;1;72;11;0;Samaha et al. (2019);Experiment 1;Orientation;1
3;177;154.28125;-22.71875;9;1;26;12;1;Samaha et al. (2019);Experiment 1;Orientation;1
3;10;140.6484375;-49.3515625;9;1;-13;13;0;Samaha et al. (2019);Experiment 1;Orientation;1
3;62;19.640625;-42.359375;9;1;-52;14;1;Samaha et al. (2019);Experiment 1;Orientation;1
3;77;67.40625;-9.59375;9;1;-15;15;1;Samaha et al. (2019);Experiment 1;Orientation;1
3;137;127.59375;-9.40625;9;1;-60;16;0;Samaha et al. (2019);Experiment 1;Orientation;1
3;41;172.8125;-48.1875;9;1;-84;17;0;Samaha et al. (2019);Experiment 1;Orientation;1
3;77;41.7734375;-35.2265625;9;1;-36;18;0;Samaha et al. (2019);Experiment 1;Orientation;1
3;35;165.03125;-49.96875;9;1;42;19;1;Samaha et al. (2019);Experiment 1;Orientation;1
3;106;166;60;9;1;-71;20;0;Samaha et al. (2019);Experiment 1;Orientation;1
3;60;117.7265625;57.7265625;9;1;46;21;0;Samaha et al. (2019);Experiment 1;Orientation;1
3;136;132.171875;-3.828125;9;1;-76;22;1;Samaha et al. (2019);Experiment 1;Orientation;1
3;173;142.265625;-30.734375;9;1;-37;23;1;Samaha et al. (2019);Experiment 1;Orientation;1
3;21;61.7265625;40.7265625;9;1;-28;24;1;Samaha et al. (2019);Experiment 1;Orientation;1
3;88;62.78125;-25.21875;9;1;-67;25;1;Samaha et al. (2019);Experiment 1;Orientation;1
3;14;13.1640625;-0.8359375;9;1;74;26;0;Samaha et al. (2019);Experiment 1;Orientation;1
3;33;29.6875;-3.3125;9;1;-19;27;0;Samaha et al. (2019);Experiment 1;Orientation;1
3;25;32.1875;7.1875;9;1;8;28;1;Samaha et al. (2019);Experiment 1;Orientation;1
3;43;33.4453125;-9.5546875;9;1;-18;29;1;Samaha et al. (2019);Experiment 1;Orientation;1
3;44;146;-78;9;1;-1;30;0;Samaha et al. (2019);Experiment 1;Orientation;1
3;21;22.25;1.25;9;1;23;31;1;Samaha et al. (2019);Experiment 1;Orientation;1
3;38;26.9921875;-11.0078125;9;1;-17;32;1;Samaha et al. (2019);Experiment 1;Orientation;1
3;172;92;-80;9;1;46;33;1;Samaha et al. (2019);Experiment 1;Orientation;1
3;135;126.6484375;-8.3515625;9;1;37;34;0;Samaha et al. (2019);Experiment 1;Orientation;1
3;55;38.9140625;-16.0859375;9;1;80;35;0;Samaha et al. (2019);Experiment 1;Orientation;1
3;141;8;47;9;1;-86;36;1;Samaha et al. (2019);Experiment 1;Orientation;1
3;76;66.4140625;-9.5859375;9;1;65;37;1;Samaha et al. (2019);Experiment 1;Orientation;1
3;136;127.5078125;-8.4921875;9;1;-60;38;0;Samaha et al. (2019);Experiment 1;Orientation;1
3;33;60.3046875;27.3046875;9;1;-77;39;0;Samaha et al. (2019);Experiment 1;Orientation;1
3;65;114.25;49.25;9;1;-32;40;1;Samaha et al. (2019);Experiment 1;Orientation;1
3;127;115.96875;-11.03125;9;1;-62;41;0;Samaha et al. (2019);Experiment 1;Orientation;1
3;21;45.140625;24.140625;9;1;-74;42;0;Samaha et al. (2019);Experiment 1;Orientation;1
3;25;132.265625;-72.734375;9;1;-4;43;0;Samaha et al. (2019);Experiment 1;Orientation;1
3;155;127.375;-27.625;9;1;50;44;1;Samaha et al. (2019);Experiment 1;Orientation;1
3;169;133.2109375;-35.7890625;9;1;-14;45;1;Samaha et al. (2019);Experiment 1;Orientation;1
3;139;152.21875;13.21875;9;1;30;46;1;Samaha et al. (2019);Experiment 1;Orientation;1
3;66;43.015625;-22.984375;9;1;73;47;1;Samaha et al. (2019);Experiment 1;Orientation;1
3;0;141.7265625;-38.2734375;9;1;66;48;1;Samaha et al. (2019);Experiment 1;Orientation;1
3;157;31.2265625;54.2265625;9;1;23;49;0;Samaha et al. (2019);Experiment 1;Orientation;1
3;84;149.8046875;65.8046875;9;1;73;50;0;Samaha et al. (2019);Experiment 1;Orientation;1
3;104;135.890625;31.890625;9;1;-20;51;1;Samaha et al. (2019);Experiment 1;Orientation;1
3;23;32.53125;9.53125;9;1;81;52;1;Samaha et al. (2019);Experiment 1;Orientation;1
3;94;128.1015625;34.1015625;9;1;-71;53;0;Samaha et al. (2019);Experiment 1;Orientation;1
3;86;136;50;9;1;8;54;0;Samaha et al. (2019);Experiment 1;Orientation;1
3;35;126.9296875;-88.0703125;9;1;51;55;0;Samaha et al. (2019);Experiment 1;Orientation;1
3;118;127.609375;9.609375;9;1;-83;56;0;Samaha et al. (2019);Experiment 1;Orientation;1
3;141;124.4375;-16.5625;9;1;-23;57;1;Samaha et al. (2019);Experiment 1;Orientation;1
3;74;158.265625;84.265625;9;1;67;58;0;Samaha et al. (2019);Experiment 1;Orientation;1
3;64;106;42;9;1;10;59;0;Samaha et al. (2019);Experiment 1;Orientation;1
3;28;43.296875;15.296875;9;1;36;60;1;Samaha et al. (2019);Experiment 1;Orientation;1
3;28;43.296875;15.296875;9;1;0;61;1;Samaha et al. (2019);Experiment 1;Orientation;1
3;95;85.609375;-9.390625;9;2;-67;251;0;Samaha et al. (2019);Experiment 1;Orientation;1
3;8;166;-22;9;2;87;252;0;Samaha et al. (2019);Experiment 1;Orientation;1
3;152;158.6796875;6.6796875;9;2;36;253;1;Samaha et al. (2019);Experiment 1;Orientation;1
3;114;118.0234375;4.0234375;9;2;38;254;0;Samaha et al. (2019);Experiment 1;Orientation;1
3;19;38.9453125;19.9453125;9;2;-85;255;1;Samaha et al. (2019);Experiment 1;Orientation;1
3;46;58.3984375;12.3984375;9;2;-27;256;1;Samaha et al. (2019);Experiment 1;Orientation;1
3;77;57.125;-19.875;9;2;-31;257;0;Samaha et al. (2019);Experiment 1;Orientation;1
3;92;114.46875;22.46875;9;2;-15;258;0;Samaha et al. (2019);Experiment 1;Orientation;1
3;129;102.0703125;-26.9296875;9;2;-37;259;0;Samaha et al. (2019);Experiment 1;Orientation;1
3;101;105.8203125;4.8203125;9;2;28;260;0;Samaha et al. (2019);Experiment 1;Orientation;1
3;42;42.3671875;0.3671875;9;2;59;261;1;Samaha et al. (2019);Experiment 1;Orientation;1
3;55;40.1015625;-14.8984375;9;2;-13;262;1;Samaha et al. (2019);Experiment 1;Orientation;1
3;114;125.40625;11.40625;9;2;-59;263;1;Samaha et al. (2019);Experiment 1;Orientation;1
3;15;38.1328125;23.1328125;9;2;-81;264;0;Samaha et al. (2019);Experiment 1;Orientation;1
3;46;33.2109375;-12.7890625;9;2;-31;265;1;Samaha et al. (2019);Experiment 1;Orientation;1
3;82;103.953125;21.953125;9;2;-36;266;0;Samaha et al. (2019);Experiment 1;Orientation;1
3;125;135.328125;10.328125;9;2;-43;267;1;Samaha et al. (2019);Experiment 1;Orientation;1
3;102;102.9296875;0.9296875;9;2;23;268;0;Samaha et al. (2019);Experiment 1;Orientation;1
3;4;127.2109375;-56.7890625;9;2;-82;269;0;Samaha et al. (2019);Experiment 1;Orientation;1
3;9;35.6875;26.6875;9;2;-5;270;1;Samaha et al. (2019);Experiment 1;Orientation;1
3;48;34.3203125;-13.6796875;9;2;-39;271;1;Samaha et al. (2019);Experiment 1;Orientation;1
3;173;58.3515625;65.3515625;9;2;55;272;1;Samaha et al. (2019);Experiment 1;Orientation;1
3;144;82;-62;9;2;29;273;0;Samaha et al. (2019);Experiment 1;Orientation;1
3;108;118.5;10.5;9;2;36;274;1;Samaha et al. (2019);Experiment 1;Orientation;1
3;59;55.2421875;-3.7578125;9;2;49;275;1;Samaha et al. (2019);Experiment 1;Orientation;1
3;139;141.96875;2.96875;9;2;-80;276;1;Samaha et al. (2019);Experiment 1;Orientation;1
3;102;102.5;0.5;9;2;37;277;0;Samaha et al. (2019);Experiment 1;Orientation;1
3;112;108.5625;-3.4375;9;2;-10;278;0;Samaha et al. (2019);Experiment 1;Orientation;1
3;91;53.328125;-37.671875;9;2;21;279;1;Samaha et al. (2019);Experiment 1;Orientation;1
3;4;94;90;9;2;87;280;0;Samaha et al. (2019);Experiment 1;Orientation;1
3;54;50.9140625;-3.0859375;9;2;-50;281;0;Samaha et al. (2019);Experiment 1;Orientation;1
3;21;47.1953125;26.1953125;9;2;33;282;1;Samaha et al. (2019);Experiment 1;Orientation;1
3;63;37.2109375;-25.7890625;9;2;-42;283;0;Samaha et al. (2019);Experiment 1;Orientation;1
3;173;135.984375;-37.015625;9;2;70;284;1;Samaha et al. (2019);Experiment 1;Orientation;1
3;125;136.9765625;11.9765625;9;2;48;285;0;Samaha et al. (2019);Experiment 1;Orientation;1
3;78;56.0546875;-21.9453125;9;2;47;286;0;Samaha et al. (2019);Experiment 1;Orientation;1
3;165;120.9453125;-44.0546875;9;2;-87;287;1;Samaha et al. (2019);Experiment 1;Orientation;1
3;15;88;73;9;2;-30;288;1;Samaha et al. (2019);Experiment 1;Orientation;1
3;119;154;35;9;2;76;289;0;Samaha et al. (2019);Experiment 1;Orientation;1
3;135;128.8671875;-6.1328125;9;2;-16;290;0;Samaha et al. (2019);Experiment 1;Orientation;1
3;106;88.84375;-17.15625;9;2;29;291;1;Samaha et al. (2019);Experiment 1;Orientation;1
3;121;109.015625;-11.984375;9;2;-15;292;0;Samaha et al. (2019);Experiment 1;Orientation;1
3;157;132.484375;-24.515625;9;2;-36;293;0;Samaha et al. (2019);Experiment 1;Orientation;1
3;126;123.390625;-2.609375;9;2;31;294;1;Samaha et al. (2019);Experiment 1;Orientation;1
3;72;125.140625;53.140625;9;2;54;295;1;Samaha et al. (2019);Experiment 1;Orientation;1
3;98;171.921875;73.921875;9;2;-26;296;1;Samaha et al. (2019);Experiment 1;Orientation;1
3;57;46;-11;9;2;41;297;0;Samaha et al. (2019);Experiment 1;Orientation;1
3;90;8;-82;9;2;-33;298;0;Samaha et al. (2019);Experiment 1;Orientation;1
3;143;147.40625;4.40625;9;2;-53;299;1;Samaha et al. (2019);Experiment 1;Orientation;1
3;33;51.328125;18.328125;9;2;-70;300;0;Samaha et al. (2019);Experiment 1;Orientation;1
3;132;129.2421875;-2.7578125;9;2;81;301;1;Samaha et al. (2019);Experiment 1;Orientation;1
3;106;116.9921875;10.9921875;9;2;26;302;0;Samaha et al. (2019);Experiment 1;Orientation;1
3;111;125.2265625;14.2265625;9;2;-5;303;0;Samaha et al. (2019);Experiment 1;Orientation;1
3;75;129.359375;54.359375;9;2;36;304;1;Samaha et al. (2019);Experiment 1;Orientation;1
3;101;113.140625;12.140625;9;2;-26;305;1;Samaha et al. (2019);Experiment 1;Orientation;1
3;62;59.7578125;-2.2421875;9;2;39;306;0;Samaha et al. (2019);Experiment 1;Orientation;1
3;135;128.7109375;-6.2890625;9;2;-73;307;0;Samaha et al. (2019);Experiment 1;Orientation;1
3;150;114;-36;9;2;-15;308;1;Samaha et al. (2019);Experiment 1;Orientation;1
3;178;12.3203125;14.3203125;9;2;-28;309;0;Samaha et al. (2019);Experiment 1;Orientation;1
3;176;26.84375;30.84375;9;2;2;310;1;Samaha et al. (2019);Experiment 1;Orientation;1
3;176;26.84375;30.84375;9;2;0;311;0;Samaha et al. (2019);Experiment 1;Orientation;1
3;33;37.3125;4.3125;9;3;-37;501;0;Samaha et al. (2019);Experiment 1;Orientation;1
3;92;57.421875;-34.578125;9;3;-59;502;1;Samaha et al. (2019);Experiment 1;Orientation;1
3;95;104.1171875;9.1171875;9;3;-3;503;1;Samaha et al. (2019);Experiment 1;Orientation;1
3;163;137.984375;-25.015625;9;3;-68;504;0;Samaha et al. (2019);Experiment 1;Orientation;1
3;139;122.828125;-16.171875;9;3;24;505;0;Samaha et al. (2019);Experiment 1;Orientation;1
3;40;134.265625;-85.734375;9;3;-81;506;0;Samaha et al. (2019);Experiment 1;Orientation;1
3;43;47.8515625;4.8515625;9;3;-3;507;0;Samaha et al. (2019);Experiment 1;Orientation;1
3;177;141.078125;-35.921875;9;3;46;508;0;Samaha et al. (2019);Experiment 1;Orientation;1
3;121;118.3046875;-2.6953125;9;3;56;509;1;Samaha et al. (2019);Experiment 1;Orientation;1
3;99;117.953125;18.953125;9;3;22;510;1;Samaha et al. (2019);Experiment 1;Orientation;1
3;162;152;-10;9;3;-63;511;0;Samaha et al. (2019);Experiment 1;Orientation;1
3;39;49.109375;10.109375;9;3;-57;512;0;Samaha et al. (2019);Experiment 1;Orientation;1
3;51;51.40625;0.40625;9;3;-12;513;1;Samaha et al. (2019);Experiment 1;Orientation;1
3;82;59.7890625;-22.2109375;9;3;-31;514;0;Samaha et al. (2019);Experiment 1;Orientation;1
3;155;119.125;-35.875;9;3;-73;515;0;Samaha et al. (2019);Experiment 1;Orientation;1
3;34;117.7578125;83.7578125;9;3;-59;516;0;Samaha et al. (2019);Experiment 1;Orientation;1
3;89;12;-77;9;3;-55;517;0;Samaha et al. (2019);Experiment 1;Orientation;1
3;80;54.1875;-25.8125;9;3;9;518;0;Samaha et al. (2019);Experiment 1;Orientation;1
3;85;102.203125;17.203125;9;3;-5;519;1;Samaha et al. (2019);Experiment 1;Orientation;1
3;98;69.875;-28.125;9;3;-13;520;0;Samaha et al. (2019);Experiment 1;Orientation;1
3;47;42.8125;-4.1875;9;3;51;521;1;Samaha et al. (2019);Experiment 1;Orientation;1
3;125;125.96875;0.96875;9;3;-78;522;1;Samaha et al. (2019);Experiment 1;Orientation;1
3;167;15.2265625;28.2265625;9;3;-42;523;1;Samaha et al. (2019);Experiment 1;Orientation;1
3;17;12.1171875;-4.8828125;9;3;-30;524;0;Samaha et al. (2019);Experiment 1;Orientation;1
3;131;121.03125;-9.96875;9;3;66;525;0;Samaha et al. (2019);Experiment 1;Orientation;1
3;9;138.3984375;-50.6015625;9;3;-58;526;1;Samaha et al. (2019);Experiment 1;Orientation;1
3;94;102.15625;8.15625;9;3;-85;527;0;Samaha et al. (2019);Experiment 1;Orientation;1
3;169;18.9140625;29.9140625;9;3;-75;528;1;Samaha et al. (2019);Experiment 1;Orientation;1
3;177;177.96875;0.96875;9;3;-8;529;1;Samaha et al. (2019);Experiment 1;Orientation;1
3;124;152.6171875;28.6171875;9;3;53;530;0;Samaha et al. (2019);Experiment 1;Orientation;1
3;160;146.1015625;-13.8984375;9;3;-36;531;0;Samaha et al. (2019);Experiment 1;Orientation;1
3;56;63.4609375;7.4609375;9;3;-76;532;1;Samaha et al. (2019);Experiment 1;Orientation;1
3;81;66.453125;-14.546875;9;3;-25;533;1;Samaha et al. (2019);Experiment 1;Orientation;1
3;63;50.4140625;-12.5859375;9;3;18;534;0;Samaha et al. (2019);Experiment 1;Orientation;1
3;169;30;41;9;3;74;535;1;Samaha et al. (2019);Experiment 1;Orientation;1
3;9;100;-89;9;3;-20;536;0;Samaha et al. (2019);Experiment 1;Orientation;1
3;27;86;59;9;3;-18;537;0;Samaha et al. (2019);Experiment 1;Orientation;1
3;107;107.0625;0.0625;9;3;-80;538;0;Samaha et al. (2019);Experiment 1;Orientation;1
3;152;134;-18;9;3;-45;539;0;Samaha et al. (2019);Experiment 1;Orientation;1
3;15;19.40625;4.40625;9;3;-43;540;1;Samaha et al. (2019);Experiment 1;Orientation;1
3;37;6;-31;9;3;-22;541;0;Samaha et al. (2019);Experiment 1;Orientation;1
3;16;80;64;9;3;21;542;0;Samaha et al. (2019);Experiment 1;Orientation;1
3;2;2;0;9;3;14;543;1;Samaha et al. (2019);Experiment 1;Orientation;1
3;138;135.7734375;-2.2265625;9;3;44;544;0;Samaha et al. (2019);Experiment 1;Orientation;1
3;155;134;-21;9;3;-17;545;0;Samaha et al. (2019);Experiment 1;Orientation;1
3;24;28.734375;4.734375;9;3;-49;546;1;Samaha et al. (2019);Experiment 1;Orientation;1
3;138;114;-24;9;3;66;547;0;Samaha et al. (2019);Experiment 1;Orientation;1
3;60;53.890625;-6.109375;9;3;78;548;0;Samaha et al. (2019);Experiment 1;Orientation;1
3;142;130.9140625;-11.0859375;9;3;-82;549;0;Samaha et al. (2019);Experiment 1;Orientation;1
3;150;46;76;9;3;-8;550;0;Samaha et al. (2019);Experiment 1;Orientation;1
3;80;46.0234375;-33.9765625;9;3;70;551;1;Samaha et al. (2019);Experiment 1;Orientation;1
3;123;122.78125;-0.21875;9;3;-43;552;1;Samaha et al. (2019);Experiment 1;Orientation;1
3;117;117.40625;0.40625;9;3;6;553;1;Samaha et al. (2019);Experiment 1;Orientation;1
3;54;128.1171875;74.1171875;9;3;63;554;1;Samaha et al. (2019);Experiment 1;Orientation;1
3;144;123.2265625;-20.7734375;9;3;-90;555;0;Samaha et al. (2019);Experiment 1;Orientation;1
3;143;119.65625;-23.34375;9;3;1;556;0;Samaha et al. (2019);Experiment 1;Orientation;1
3;0;67.0625;67.0625;9;3;-37;557;1;Samaha et al. (2019);Experiment 1;Orientation;1
3;38;23.703125;-14.296875;9;3;-38;558;0;Samaha et al. (2019);Experiment 1;Orientation;1
3;125;24.6640625;79.6640625;9;3;-87;559;1;Samaha et al. (2019);Experiment 1;Orientation;1
3;116;117.078125;1.078125;9;3;9;560;1;Samaha et al. (2019);Experiment 1;Orientation;1
3;116;117.078125;1.078125;9;3;0;561;0;Samaha et al. (2019);Experiment 1;Orientation;1
3;84;106;22;9;4;32;751;0;Samaha et al. (2019);Experiment 1;Orientation;1
3;102;117.4765625;15.4765625;9;4;-18;752;0;Samaha et al. (2019);Experiment 1;Orientation;1
3;81;82.9453125;1.9453125;9;4;21;753;0;Samaha et al. (2019);Experiment 1;Orientation;1
3;171;147.921875;-23.078125;9;4;-90;754;1;Samaha et al. (2019);Experiment 1;Orientation;1
3;42;50.3203125;8.3203125;9;4;-51;755;1;Samaha et al. (2019);Experiment 1;Orientation;1
3;95;82.53125;-12.46875;9;4;-53;756;0;Samaha et al. (2019);Experiment 1;Orientation;1
3;152;35.109375;63.109375;9;4;-57;757;0;Samaha et al. (2019);Experiment 1;Orientation;1
3;19;115.7890625;-83.2109375;9;4;-47;758;0;Samaha et al. (2019);Experiment 1;Orientation;1
3;165;52.1328125;67.1328125;9;4;34;759;0;Samaha et al. (2019);Experiment 1;Orientation;1
3;3;164.7109375;-18.2890625;9;4;-18;760;1;Samaha et al. (2019);Experiment 1;Orientation;1
3;170;155.4765625;-14.5234375;9;4;13;761;0;Samaha et al. (2019);Experiment 1;Orientation;1
3;74;25.1796875;-48.8203125;9;4;-84;762;0;Samaha et al. (2019);Experiment 1;Orientation;1
3;20;16.9921875;-3.0078125;9;4;54;763;0;Samaha et al. (2019);Experiment 1;Orientation;1
3;165;170.234375;5.234375;9;4;35;764;1;Samaha et al. (2019);Experiment 1;Orientation;1
3;67;61.953125;-5.046875;9;4;-82;765;0;Samaha et al. (2019);Experiment 1;Orientation;1
3;172;45.96875;53.96875;9;4;75;766;0;Samaha et al. (2019);Experiment 1;Orientation;1
3;118;148.25;30.25;9;4;54;767;0;Samaha et al. (2019);Experiment 1;Orientation;1
3;27;39.625;12.625;9;4;-89;768;1;Samaha et al. (2019);Experiment 1;Orientation;1
3;26;55.609375;29.609375;9;4;1;769;0;Samaha et al. (2019);Experiment 1;Orientation;1
3;156;136.0703125;-19.9296875;9;4;50;770;0;Samaha et al. (2019);Experiment 1;Orientation;1
3;92;57.34375;-34.65625;9;4;64;771;0;Samaha et al. (2019);Experiment 1;Orientation;1
3;106;127.4765625;21.4765625;9;4;-14;772;1;Samaha et al. (2019);Experiment 1;Orientation;1
3;115;149.671875;34.671875;9;4;-9;773;1;Samaha et al. (2019);Experiment 1;Orientation;1
3;135;140.21875;5.21875;9;4;-20;774;0;Samaha et al. (2019);Experiment 1;Orientation;1
3;33;48;15;9;4;-78;775;0;Samaha et al. (2019);Experiment 1;Orientation;1
3;67;84.3515625;17.3515625;9;4;-34;776;1;Samaha et al. (2019);Experiment 1;Orientation;1
3;57;152.515625;-84.484375;9;4;10;777;1;Samaha et al. (2019);Experiment 1;Orientation;1
3;119;145.4921875;26.4921875;9;4;-62;778;1;Samaha et al. (2019);Experiment 1;Orientation;1
3;98;104.78125;6.78125;9;4;21;779;0;Samaha et al. (2019);Experiment 1;Orientation;1
3;31;44.234375;13.234375;9;4;67;780;1;Samaha et al. (2019);Experiment 1;Orientation;1
3;143;135.375;-7.625;9;4;68;781;0;Samaha et al. (2019);Experiment 1;Orientation;1
3;16;69.4921875;53.4921875;9;4;-53;782;1;Samaha et al. (2019);Experiment 1;Orientation;1
3;16;42.828125;26.828125;9;4;0;783;1;Samaha et al. (2019);Experiment 1;Orientation;1
3;11;149.015625;-41.984375;9;4;5;784;1;Samaha et al. (2019);Experiment 1;Orientation;1
3;73;49.4921875;-23.5078125;9;4;-62;785;1;Samaha et al. (2019);Experiment 1;Orientation;1
3;48;120.171875;72.171875;9;4;25;786;1;Samaha et al. (2019);Experiment 1;Orientation;1
3;130;159.5390625;29.5390625;9;4;-82;787;0;Samaha et al. (2019);Experiment 1;Orientation;1
3;97;169.59375;72.59375;9;4;33;788;1;Samaha et al. (2019);Experiment 1;Orientation;1
3;79;71.4609375;-7.5390625;9;4;18;789;0;Samaha et al. (2019);Experiment 1;Orientation;1
3;142;119.09375;-22.90625;9;4;-63;790;0;Samaha et al. (2019);Experiment 1;Orientation;1
3;80;77.6875;-2.3125;9;4;62;791;1;Samaha et al. (2019);Experiment 1;Orientation;1
3;129;106.453125;-22.546875;9;4;-49;792;0;Samaha et al. (2019);Experiment 1;Orientation;1
3;86;89.2265625;3.2265625;9;4;43;793;1;Samaha et al. (2019);Experiment 1;Orientation;1
3;115;48;-67;9;4;-29;794;1;Samaha et al. (2019);Experiment 1;Orientation;1
3;177;125.7421875;-51.2578125;9;4;-62;795;1;Samaha et al. (2019);Experiment 1;Orientation;1
3;124;136.78125;12.78125;9;4;53;796;1;Samaha et al. (2019);Experiment 1;Orientation;1
3;113;108.546875;-4.453125;9;4;11;797;1;Samaha et al. (2019);Experiment 1;Orientation;1
3;8;155.390625;-32.609375;9;4;-75;798;1;Samaha et al. (2019);Experiment 1;Orientation;1
3;102;112.6171875;10.6171875;9;4;86;799;0;Samaha et al. (2019);Experiment 1;Orientation;1
3;33;52;19;9;4;69;800;1;Samaha et al. (2019);Experiment 1;Orientation;1
3;156;139.390625;-16.609375;9;4;57;801;0;Samaha et al. (2019);Experiment 1;Orientation;1
3;52;47.8515625;-4.1484375;9;4;-76;802;1;Samaha et al. (2019);Experiment 1;Orientation;1
3;118;125.125;7.125;9;4;-66;803;1;Samaha et al. (2019);Experiment 1;Orientation;1
3;58;60;2;9;4;60;804;1;Samaha et al. (2019);Experiment 1;Orientation;1
3;159;130.171875;-28.828125;9;4;79;805;0;Samaha et al. (2019);Experiment 1;Orientation;1
3;133;157.1796875;24.1796875;9;4;26;806;1;Samaha et al. (2019);Experiment 1;Orientation;1
3;0;107.609375;-72.390625;9;4;-47;807;0;Samaha et al. (2019);Experiment 1;Orientation;1
3;150;50;80;9;4;30;808;1;Samaha et al. (2019);Experiment 1;Orientation;1
3;157;131.8515625;-25.1484375;9;4;-7;809;1;Samaha et al. (2019);Experiment 1;Orientation;1
3;4;11.65625;7.65625;9;4;-27;810;1;Samaha et al. (2019);Experiment 1;Orientation;1
3;4;11.65625;7.65625;9;4;0;811;0;Samaha et al. (2019);Experiment 1;Orientation;1
3;138;122.9140625;-15.0859375;9;5;46;1001;1;Samaha et al. (2019);Experiment 1;Orientation;1
3;88;52.9921875;-35.0078125;9;5;50;1002;0;Samaha et al. (2019);Experiment 1;Orientation;1
3;158;136.484375;-21.515625;9;5;-70;1003;0;Samaha et al. (2019);Experiment 1;Orientation;1
3;52;59.640625;7.640625;9;5;-74;1004;1;Samaha et al. (2019);Experiment 1;Orientation;1
3;51;36;-15;9;5;1;1005;1;Samaha et al. (2019);Experiment 1;Orientation;1
3;33;122;89;9;5;18;1006;0;Samaha et al. (2019);Experiment 1;Orientation;1
3;25;23.4765625;-1.5234375;9;5;8;1007;0;Samaha et al. (2019);Experiment 1;Orientation;1
3;165;151.2421875;-13.7578125;9;5;40;1008;0;Samaha et al. (2019);Experiment 1;Orientation;1
3;135;142;7;9;5;30;1009;0;Samaha et al. (2019);Experiment 1;Orientation;1
3;148;131.125;-16.875;9;5;-13;1010;1;Samaha et al. (2019);Experiment 1;Orientation;1
3;127;134.5859375;7.5859375;9;5;21;1011;0;Samaha et al. (2019);Experiment 1;Orientation;1
3;107;125.890625;18.890625;9;5;20;1012;1;Samaha et al. (2019);Experiment 1;Orientation;1
3;147;134.0703125;-12.9296875;9;5;-40;1013;1;Samaha et al. (2019);Experiment 1;Orientation;1
3;80;132.1015625;52.1015625;9;5;67;1014;0;Samaha et al. (2019);Experiment 1;Orientation;1
3;43;53.046875;10.046875;9;5;37;1015;0;Samaha et al. (2019);Experiment 1;Orientation;1
3;11;39.1796875;28.1796875;9;5;32;1016;0;Samaha et al. (2019);Experiment 1;Orientation;1
3;103;118.0703125;15.0703125;9;5;88;1017;1;Samaha et al. (2019);Experiment 1;Orientation;1
3;65;57.703125;-7.296875;9;5;38;1018;1;Samaha et al. (2019);Experiment 1;Orientation;1
3;57;52.6796875;-4.3203125;9;5;8;1019;0;Samaha et al. (2019);Experiment 1;Orientation;1
3;142;128.5;-13.5;9;5;-85;1020;0;Samaha et al. (2019);Experiment 1;Orientation;1
3;139;115.328125;-23.671875;9;5;3;1021;1;Samaha et al. (2019);Experiment 1;Orientation;1
3;106;124.5;18.5;9;5;33;1022;0;Samaha et al. (2019);Experiment 1;Orientation;1
3;92;97.890625;5.890625;9;5;14;1023;0;Samaha et al. (2019);Experiment 1;Orientation;1
3;166;176;10;9;5;-74;1024;0;Samaha et al. (2019);Experiment 1;Orientation;1
3;13;15.59375;2.59375;9;5;-27;1025;0;Samaha et al. (2019);Experiment 1;Orientation;1
3;46;34.1875;-11.8125;9;5;-33;1026;0;Samaha et al. (2019);Experiment 1;Orientation;1
3;97;31.359375;-65.640625;9;5;-51;1027;1;Samaha et al. (2019);Experiment 1;Orientation;1
3;44;36;-8;9;5;53;1028;0;Samaha et al. (2019);Experiment 1;Orientation;1
3;66;41.6875;-24.3125;9;5;-22;1029;0;Samaha et al. (2019);Experiment 1;Orientation;1
3;139;70.6328125;-68.3671875;9;5;-73;1030;0;Samaha et al. (2019);Experiment 1;Orientation;1
3;144;144.1875;0.1875;9;5;-5;1031;1;Samaha et al. (2019);Experiment 1;Orientation;1
3;28;53.078125;25.078125;9;5;-64;1032;1;Samaha et al. (2019);Experiment 1;Orientation;1
3;85;78.4140625;-6.5859375;9;5;-57;1033;0;Samaha et al. (2019);Experiment 1;Orientation;1
3;5;128;-57;9;5;80;1034;0;Samaha et al. (2019);Experiment 1;Orientation;1
3;85;61.078125;-23.921875;9;5;-80;1035;1;Samaha et al. (2019);Experiment 1;Orientation;1
3;90;64.3046875;-25.6953125;9;5;-5;1036;0;Samaha et al. (2019);Experiment 1;Orientation;1
3;64;52.46875;-11.53125;9;5;26;1037;1;Samaha et al. (2019);Experiment 1;Orientation;1
3;83;55.328125;-27.671875;9;5;-19;1038;0;Samaha et al. (2019);Experiment 1;Orientation;1
3;108;100.796875;-7.203125;9;5;-25;1039;0;Samaha et al. (2019);Experiment 1;Orientation;1
3;108;100.5;-7.5;9;5;0;1040;0;Samaha et al. (2019);Experiment 1;Orientation;1
3;145;130.828125;-14.171875;9;5;-37;1041;0;Samaha et al. (2019);Experiment 1;Orientation;1
3;44;36.3828125;-7.6171875;9;5;-79;1042;1;Samaha et al. (2019);Experiment 1;Orientation;1
3;168;107.2734375;-60.7265625;9;5;56;1043;0;Samaha et al. (2019);Experiment 1;Orientation;1
3;20;54.25;34.25;9;5;-32;1044;1;Samaha et al. (2019);Experiment 1;Orientation;1
3;136;139.375;3.375;9;5;64;1045;1;Samaha et al. (2019);Experiment 1;Orientation;1
3;112;107.2109375;-4.7890625;9;5;24;1046;1;Samaha et al. (2019);Experiment 1;Orientation;1
3;1;45.5078125;44.5078125;9;5;-69;1047;0;Samaha et al. (2019);Experiment 1;Orientation;1
3;11;43.421875;32.421875;9;5;-10;1048;0;Samaha et al. (2019);Experiment 1;Orientation;1
3;13;45.8203125;32.8203125;9;5;-2;1049;0;Samaha et al. (2019);Experiment 1;Orientation;1
3;144;140.0390625;-3.9609375;9;5;49;1050;1;Samaha et al. (2019);Experiment 1;Orientation;1
3;29;34.0546875;5.0546875;9;5;-65;1051;1;Samaha et al. (2019);Experiment 1;Orientation;1
3;33;22.5625;-10.4375;9;5;-4;1052;1;Samaha et al. (2019);Experiment 1;Orientation;1
3;148;52;84;9;5;65;1053;0;Samaha et al. (2019);Experiment 1;Orientation;1
3;46;57.5546875;11.5546875;9;5;-78;1054;0;Samaha et al. (2019);Experiment 1;Orientation;1
3;78;67.03125;-10.96875;9;5;-32;1055;1;Samaha et al. (2019);Experiment 1;Orientation;1
3;67;20;-47;9;5;11;1056;0;Samaha et al. (2019);Experiment 1;Orientation;1
3;79;76.1328125;-2.8671875;9;5;-12;1057;1;Samaha et al. (2019);Experiment 1;Orientation;1
3;62;114.5;52.5;9;5;17;1058;1;Samaha et al. (2019);Experiment 1;Orientation;1
3;157;125.0625;-31.9375;9;5;85;1059;0;Samaha et al. (2019);Experiment 1;Orientation;1
3;26;14.15625;-11.84375;9;5;-49;1060;0;Samaha et al. (2019);Experiment 1;Orientation;1
3;26;14.15625;-11.84375;9;5;0;1061;0;Samaha et al. (2019);Experiment 1;Orientation;1
4;102;71.953125;-30.046875;9;1;-76;1;0;Samaha et al. (2019);Experiment 1;Orientation;1
4;114;131.8359375;17.8359375;9;1;-12;2;1;Samaha et al. (2019);Experiment 1;Orientation;1
4;90;59.125;-30.875;9;1;24;3;1;Samaha et al. (2019);Experiment 1;Orientation;1
4;58;46.53125;-11.46875;9;1;32;4;1;Samaha et al. (2019);Experiment 1;Orientation;1
4;122;128.3515625;6.3515625;9;1;-64;5;0;Samaha et al. (2019);Experiment 1;Orientation;1
4;118;140.0390625;22.0390625;9;1;4;6;1;Samaha et al. (2019);Experiment 1;Orientation;1
4;74;53.140625;-20.859375;9;1;44;7;1;Samaha et al. (2019);Experiment 1;Orientation;1
4;139;132.3203125;-6.6796875;9;1;-65;8;0;Samaha et al. (2019);Experiment 1;Orientation;1
4;71;47.703125;-23.296875;9;1;68;9;1;Samaha et al. (2019);Experiment 1;Orientation;1
4;35;30.3828125;-4.6171875;9;1;36;10;1;Samaha et al. (2019);Experiment 1;Orientation;1
4;65;47.2734375;-17.7265625;9;1;-30;11;1;Samaha et al. (2019);Experiment 1;Orientation;1
4;138;140.53125;2.53125;9;1;-73;12;0;Samaha et al. (2019);Experiment 1;Orientation;1
4;76;53.34375;-22.65625;9;1;62;13;0;Samaha et al. (2019);Experiment 1;Orientation;1
4;80;59.875;-20.125;9;1;-4;14;0;Samaha et al. (2019);Experiment 1;Orientation;1
4;70;61.96875;-8.03125;9;1;10;15;1;Samaha et al. (2019);Experiment 1;Orientation;1
4;5;2;-3;9;1;65;16;1;Samaha et al. (2019);Experiment 1;Orientation;1
4;33;32.5;-0.5;9;1;-28;17;0;Samaha et al. (2019);Experiment 1;Orientation;1
4;2;9.96875;7.96875;9;1;31;18;1;Samaha et al. (2019);Experiment 1;Orientation;1
4;51;42.9140625;-8.0859375;9;1;-49;19;0;Samaha et al. (2019);Experiment 1;Orientation;1
4;84;53.1953125;-30.8046875;9;1;-33;20;0;Samaha et al. (2019);Experiment 1;Orientation;1
4;128;123.421875;-4.578125;9;1;-44;21;1;Samaha et al. (2019);Experiment 1;Orientation;1
4;163;129.421875;-33.578125;9;1;-35;22;0;Samaha et al. (2019);Experiment 1;Orientation;1
4;35;34.0703125;-0.9296875;9;1;-52;23;0;Samaha et al. (2019);Experiment 1;Orientation;1
4;8;8.9140625;0.9140625;9;1;27;24;0;Samaha et al. (2019);Experiment 1;Orientation;1
4;171;174.15625;3.15625;9;1;17;25;1;Samaha et al. (2019);Experiment 1;Orientation;1
4;127;145.59375;18.59375;9;1;44;26;1;Samaha et al. (2019);Experiment 1;Orientation;1
4;103;131.5078125;28.5078125;9;1;24;27;0;Samaha et al. (2019);Experiment 1;Orientation;1
4;71;41.609375;-29.390625;9;1;32;28;1;Samaha et al. (2019);Experiment 1;Orientation;1
4;65;53.078125;-11.921875;9;1;6;29;0;Samaha et al. (2019);Experiment 1;Orientation;1
4;35;52.0546875;17.0546875;9;1;30;30;1;Samaha et al. (2019);Experiment 1;Orientation;1
4;84;88.1328125;4.1328125;9;1;-49;31;0;Samaha et al. (2019);Experiment 1;Orientation;1
4;59;27.109375;-31.890625;9;1;25;32;0;Samaha et al. (2019);Experiment 1;Orientation;1
4;74;63.7578125;-10.2421875;9;1;-15;33;0;Samaha et al. (2019);Experiment 1;Orientation;1
4;113;163.296875;50.296875;9;1;-39;34;1;Samaha et al. (2019);Experiment 1;Orientation;1
4;56;46;-10;9;1;57;35;0;Samaha et al. (2019);Experiment 1;Orientation;1
4;61;25.8359375;-35.1640625;9;1;-5;36;0;Samaha et al. (2019);Experiment 1;Orientation;1
4;61;62.796875;1.796875;9;1;0;37;0;Samaha et al. (2019);Experiment 1;Orientation;1
4;93;108.8671875;15.8671875;9;1;-32;38;0;Samaha et al. (2019);Experiment 1;Orientation;1
4;124;119.0625;-4.9375;9;1;-31;39;1;Samaha et al. (2019);Experiment 1;Orientation;1
4;113;130.75;17.75;9;1;11;40;1;Samaha et al. (2019);Experiment 1;Orientation;1
4;143;129.5234375;-13.4765625;9;1;-30;41;1;Samaha et al. (2019);Experiment 1;Orientation;1
4;169;172.0703125;3.0703125;9;1;-26;42;0;Samaha et al. (2019);Experiment 1;Orientation;1
4;156;165.40625;9.40625;9;1;13;43;0;Samaha et al. (2019);Experiment 1;Orientation;1
4;1;167.421875;-13.578125;9;1;-25;44;1;Samaha et al. (2019);Experiment 1;Orientation;1
4;100;125.421875;25.421875;9;1;81;45;1;Samaha et al. (2019);Experiment 1;Orientation;1
4;77;56.6171875;-20.3828125;9;1;23;46;1;Samaha et al. (2019);Experiment 1;Orientation;1
4;9;122.3203125;-66.6796875;9;1;68;47;1;Samaha et al. (2019);Experiment 1;Orientation;1
4;109;117.2109375;8.2109375;9;1;80;48;1;Samaha et al. (2019);Experiment 1;Orientation;1
4;8;24.234375;16.234375;9;1;-79;49;1;Samaha et al. (2019);Experiment 1;Orientation;1
4;76;32.828125;-43.171875;9;1;-68;50;1;Samaha et al. (2019);Experiment 1;Orientation;1
4;128;143.375;15.375;9;1;-52;51;0;Samaha et al. (2019);Experiment 1;Orientation;1
4;4;160.78125;-23.21875;9;1;-56;52;1;Samaha et al. (2019);Experiment 1;Orientation;1
4;105;111.390625;6.390625;9;1;79;53;0;Samaha et al. (2019);Experiment 1;Orientation;1
4;120;116;-4;9;1;-15;54;0;Samaha et al. (2019);Experiment 1;Orientation;1
4;19;29.671875;10.671875;9;1;-79;55;0;Samaha et al. (2019);Experiment 1;Orientation;1
4;74;37.9375;-36.0625;9;1;-55;56;0;Samaha et al. (2019);Experiment 1;Orientation;1
4;130;163.7890625;33.7890625;9;1;-56;57;1;Samaha et al. (2019);Experiment 1;Orientation;1
4;29;30.53125;1.53125;9;1;-79;58;0;Samaha et al. (2019);Experiment 1;Orientation;1
4;87;76.5625;-10.4375;9;1;-58;59;0;Samaha et al. (2019);Experiment 1;Orientation;1
4;124;124.4296875;0.4296875;9;1;-37;60;1;Samaha et al. (2019);Experiment 1;Orientation;1
4;124;124.4296875;0.4296875;9;1;0;61;1;Samaha et al. (2019);Experiment 1;Orientation;1
4;123;155.4765625;32.4765625;9;2;1;251;1;Samaha et al. (2019);Experiment 1;Orientation;1
4;10;37.7578125;27.7578125;9;2;-67;252;0;Samaha et al. (2019);Experiment 1;Orientation;1
4;11;158;-33;9;2;-1;253;0;Samaha et al. (2019);Experiment 1;Orientation;1
4;84;47.5390625;-36.4609375;9;2;-73;254;0;Samaha et al. (2019);Experiment 1;Orientation;1
4;112;120;8;9;2;-28;255;0;Samaha et al. (2019);Experiment 1;Orientation;1
4;90;56.3671875;-33.6328125;9;2;22;256;0;Samaha et al. (2019);Experiment 1;Orientation;1
4;15;156;-39;9;2;75;257;1;Samaha et al. (2019);Experiment 1;Orientation;1
4;42;44.6796875;2.6796875;9;2;-27;258;0;Samaha et al. (2019);Experiment 1;Orientation;1
4;85;54.21875;-30.78125;9;2;-43;259;1;Samaha et al. (2019);Experiment 1;Orientation;1
4;29;22.765625;-6.234375;9;2;56;260;0;Samaha et al. (2019);Experiment 1;Orientation;1
4;42;27.4453125;-14.5546875;9;2;-13;261;0;Samaha et al. (2019);Experiment 1;Orientation;1
4;81;97.875;16.875;9;2;-39;262;0;Samaha et al. (2019);Experiment 1;Orientation;1
4;167;168.46875;1.46875;9;2;-86;263;0;Samaha et al. (2019);Experiment 1;Orientation;1
4;10;15.078125;5.078125;9;2;-23;264;1;Samaha et al. (2019);Experiment 1;Orientation;1
4;47;32.515625;-14.484375;9;2;-37;265;0;Samaha et al. (2019);Experiment 1;Orientation;1
4;116;127.921875;11.921875;9;2;-69;266;1;Samaha et al. (2019);Experiment 1;Orientation;1
4;2;133.078125;-48.921875;9;2;-66;267;1;Samaha et al. (2019);Experiment 1;Orientation;1
4;3;19.390625;16.390625;9;2;-1;268;1;Samaha et al. (2019);Experiment 1;Orientation;1
4;120;133.1640625;13.1640625;9;2;63;269;1;Samaha et al. (2019);Experiment 1;Orientation;1
4;87;75.640625;-11.359375;9;2;33;270;0;Samaha et al. (2019);Experiment 1;Orientation;1
4;24;17.03125;-6.96875;9;2;63;271;0;Samaha et al. (2019);Experiment 1;Orientation;1
4;12;8.0859375;-3.9140625;9;2;12;272;1;Samaha et al. (2019);Experiment 1;Orientation;1
4;0;12.9921875;12.9921875;9;2;12;273;0;Samaha et al. (2019);Experiment 1;Orientation;1
4;153;143.390625;-9.609375;9;2;27;274;1;Samaha et al. (2019);Experiment 1;Orientation;1
4;32;34.4140625;2.4140625;9;2;-59;275;0;Samaha et al. (2019);Experiment 1;Orientation;1
4;149;162.1015625;13.1015625;9;2;63;276;0;Samaha et al. (2019);Experiment 1;Orientation;1
4;60;36.3671875;-23.6328125;9;2;89;277;0;Samaha et al. (2019);Experiment 1;Orientation;1
4;98;92.265625;-5.734375;9;2;-38;278;0;Samaha et al. (2019);Experiment 1;Orientation;1
4;12;12.6171875;0.6171875;9;2;86;279;0;Samaha et al. (2019);Experiment 1;Orientation;1
4;3;15.03125;12.03125;9;2;9;280;1;Samaha et al. (2019);Experiment 1;Orientation;1
4;56;24.7109375;-31.2890625;9;2;-53;281;1;Samaha et al. (2019);Experiment 1;Orientation;1
4;13;19.703125;6.703125;9;2;43;282;1;Samaha et al. (2019);Experiment 1;Orientation;1
4;64;30;-34;9;2;-51;283;0;Samaha et al. (2019);Experiment 1;Orientation;1
4;8;12.203125;4.203125;9;2;56;284;1;Samaha et al. (2019);Experiment 1;Orientation;1
4;26;13.5390625;-12.4609375;9;2;-18;285;0;Samaha et al. (2019);Experiment 1;Orientation;1
4;22;37.90625;15.90625;9;2;4;286;1;Samaha et al. (2019);Experiment 1;Orientation;1
4;55;37.09375;-17.90625;9;2;-33;287;1;Samaha et al. (2019);Experiment 1;Orientation;1
4;109;153.609375;44.609375;9;2;-54;288;0;Samaha et al. (2019);Experiment 1;Orientation;1
4;177;31.078125;34.078125;9;2;-68;289;1;Samaha et al. (2019);Experiment 1;Orientation;1
4;152;165.1640625;13.1640625;9;2;25;290;1;Samaha et al. (2019);Experiment 1;Orientation;1
4;94;99.59375;5.59375;9;2;58;291;1;Samaha et al. (2019);Experiment 1;Orientation;1
4;172;169.1640625;-2.8359375;9;2;-78;292;1;Samaha et al. (2019);Experiment 1;Orientation;1
4;129;119.4921875;-9.5078125;9;2;43;293;0;Samaha et al. (2019);Experiment 1;Orientation;1
4;47;119.4453125;72.4453125;9;2;82;294;1;Samaha et al. (2019);Experiment 1;Orientation;1
4;168;167.890625;-0.109375;9;2;59;295;0;Samaha et al. (2019);Experiment 1;Orientation;1
4;141;146.0546875;5.0546875;9;2;27;296;0;Samaha et al. (2019);Experiment 1;Orientation;1
4;170;170;0;9;2;-29;297;1;Samaha et al. (2019);Experiment 1;Orientation;1
4;42;49.5703125;7.5703125;9;2;-52;298;1;Samaha et al. (2019);Experiment 1;Orientation;1
4;162;119.1953125;-42.8046875;9;2;60;299;0;Samaha et al. (2019);Experiment 1;Orientation;1
4;149;162;13;9;2;13;300;1;Samaha et al. (2019);Experiment 1;Orientation;1
4;19;37.375;18.375;9;2;-50;301;1;Samaha et al. (2019);Experiment 1;Orientation;1
4;6;15.4765625;9.4765625;9;2;13;302;1;Samaha et al. (2019);Experiment 1;Orientation;1
4;93;52.453125;-40.546875;9;2;-87;303;1;Samaha et al. (2019);Experiment 1;Orientation;1
4;102;107.09375;5.09375;9;2;-9;304;1;Samaha et al. (2019);Experiment 1;Orientation;1
4;74;71.5234375;-2.4765625;9;2;28;305;0;Samaha et al. (2019);Experiment 1;Orientation;1
4;69;77.046875;8.046875;9;2;5;306;0;Samaha et al. (2019);Experiment 1;Orientation;1
4;32;38.0703125;6.0703125;9;2;37;307;0;Samaha et al. (2019);Experiment 1;Orientation;1
4;161;154.203125;-6.796875;9;2;51;308;1;Samaha et al. (2019);Experiment 1;Orientation;1
4;69;35.8515625;-33.1484375;9;2;-88;309;1;Samaha et al. (2019);Experiment 1;Orientation;1
4;163;149.890625;-13.109375;9;2;86;310;1;Samaha et al. (2019);Experiment 1;Orientation;1
4;163;149.890625;-13.109375;9;2;0;311;0;Samaha et al. (2019);Experiment 1;Orientation;1
4;16;39.390625;23.390625;9;3;-33;501;1;Samaha et al. (2019);Experiment 1;Orientation;1
4;110;132.3671875;22.3671875;9;3;86;502;1;Samaha et al. (2019);Experiment 1;Orientation;1
4;0;42.765625;42.765625;9;3;-70;503;0;Samaha et al. (2019);Experiment 1;Orientation;1
4;154;167.2421875;13.2421875;9;3;26;504;1;Samaha et al. (2019);Experiment 1;Orientation;1
4;102;66.6328125;-35.3671875;9;3;52;505;1;Samaha et al. (2019);Experiment 1;Orientation;1
4;124;119.7265625;-4.2734375;9;3;-22;506;1;Samaha et al. (2019);Experiment 1;Orientation;1
4;79;65.5546875;-13.4453125;9;3;45;507;0;Samaha et al. (2019);Experiment 1;Orientation;1
4;106;113.625;7.625;9;3;-27;508;0;Samaha et al. (2019);Experiment 1;Orientation;1
4;18;20.6171875;2.6171875;9;3;88;509;0;Samaha et al. (2019);Experiment 1;Orientation;1
4;85;124.6953125;39.6953125;9;3;-67;510;0;Samaha et al. (2019);Experiment 1;Orientation;1
4;153;130.9140625;-22.0859375;9;3;-68;511;0;Samaha et al. (2019);Experiment 1;Orientation;1
4;33;21.375;-11.625;9;3;-60;512;1;Samaha et al. (2019);Experiment 1;Orientation;1
4;96;126.3046875;30.3046875;9;3;-63;513;0;Samaha et al. (2019);Experiment 1;Orientation;1
4;27;41.421875;14.421875;9;3;69;514;1;Samaha et al. (2019);Experiment 1;Orientation;1
4;69;57.390625;-11.609375;9;3;-42;515;0;Samaha et al. (2019);Experiment 1;Orientation;1
4;11;49.7734375;38.7734375;9;3;58;516;1;Samaha et al. (2019);Experiment 1;Orientation;1
4;136;129.703125;-6.296875;9;3;55;517;0;Samaha et al. (2019);Experiment 1;Orientation;1
4;46;41.2109375;-4.7890625;9;3;90;518;0;Samaha et al. (2019);Experiment 1;Orientation;1
4;140;125.8515625;-14.1484375;9;3;86;519;0;Samaha et al. (2019);Experiment 1;Orientation;1
4;96;80.453125;-15.546875;9;3;44;520;1;Samaha et al. (2019);Experiment 1;Orientation;1
4;65;66.453125;1.453125;9;3;31;521;1;Samaha et al. (2019);Experiment 1;Orientation;1
4;157;130.8671875;-26.1328125;9;3;88;522;1;Samaha et al. (2019);Experiment 1;Orientation;1
4;5;140.8671875;-44.1328125;9;3;-28;523;1;Samaha et al. (2019);Experiment 1;Orientation;1
4;20;30.78125;10.78125;9;3;-15;524;0;Samaha et al. (2019);Experiment 1;Orientation;1
4;122;157.921875;35.921875;9;3;78;525;1;Samaha et al. (2019);Experiment 1;Orientation;1
4;86;52.4375;-33.5625;9;3;36;526;1;Samaha et al. (2019);Experiment 1;Orientation;1
4;73;47.40625;-25.59375;9;3;13;527;1;Samaha et al. (2019);Experiment 1;Orientation;1
4;115;127.4765625;12.4765625;9;3;-42;528;1;Samaha et al. (2019);Experiment 1;Orientation;1
4;172;179.65625;7.65625;9;3;-57;529;1;Samaha et al. (2019);Experiment 1;Orientation;1
4;120;144.3671875;24.3671875;9;3;52;530;1;Samaha et al. (2019);Experiment 1;Orientation;1
4;163;134.1015625;-28.8984375;9;3;-43;531;1;Samaha et al. (2019);Experiment 1;Orientation;1
4;137;146;9;9;3;26;532;0;Samaha et al. (2019);Experiment 1;Orientation;1
4;161;168.3046875;7.3046875;9;3;-24;533;0;Samaha et al. (2019);Experiment 1;Orientation;1
4;104;120;16;9;3;57;534;0;Samaha et al. (2019);Experiment 1;Orientation;1
4;151;154.78125;3.78125;9;3;-47;535;0;Samaha et al. (2019);Experiment 1;Orientation;1
4;1;172;-9;9;3;-30;536;1;Samaha et al. (2019);Experiment 1;Orientation;1
4;79;54.8671875;-24.1328125;9;3;-78;537;0;Samaha et al. (2019);Experiment 1;Orientation;1
4;84;56;-28;9;3;-5;538;1;Samaha et al. (2019);Experiment 1;Orientation;1
4;98;121.65625;23.65625;9;3;-14;539;1;Samaha et al. (2019);Experiment 1;Orientation;1
4;164;147.046875;-16.953125;9;3;-66;540;0;Samaha et al. (2019);Experiment 1;Orientation;1
4;98;131.09375;33.09375;9;3;66;541;1;Samaha et al. (2019);Experiment 1;Orientation;1
4;96;122;26;9;3;2;542;1;Samaha et al. (2019);Experiment 1;Orientation;1
4;31;44.6171875;13.6171875;9;3;65;543;0;Samaha et al. (2019);Experiment 1;Orientation;1
4;36;22;-14;9;3;-5;544;0;Samaha et al. (2019);Experiment 1;Orientation;1
4;118;131.8515625;13.8515625;9;3;-82;545;1;Samaha et al. (2019);Experiment 1;Orientation;1
4;122;136.734375;14.734375;9;3;-4;546;1;Samaha et al. (2019);Experiment 1;Orientation;1
4;103;67.59375;-35.40625;9;3;19;547;1;Samaha et al. (2019);Experiment 1;Orientation;1
4;173;157.359375;-15.640625;9;3;-70;548;1;Samaha et al. (2019);Experiment 1;Orientation;1
4;43;38.828125;-4.171875;9;3;-50;549;0;Samaha et al. (2019);Experiment 1;Orientation;1
4;31;39.578125;8.578125;9;3;12;550;1;Samaha et al. (2019);Experiment 1;Orientation;1
4;31;25.609375;-5.390625;9;3;0;551;0;Samaha et al. (2019);Experiment 1;Orientation;1
4;164;148.15625;-15.84375;9;3;47;552;0;Samaha et al. (2019);Experiment 1;Orientation;1
4;71;60.0234375;-10.9765625;9;3;-87;553;0;Samaha et al. (2019);Experiment 1;Orientation;1
4;151;161.7421875;10.7421875;9;3;-80;554;0;Samaha et al. (2019);Experiment 1;Orientation;1
4;40;38.9921875;-1.0078125;9;3;-69;555;1;Samaha et al. (2019);Experiment 1;Orientation;1
4;147;142.828125;-4.171875;9;3;73;556;0;Samaha et al. (2019);Experiment 1;Orientation;1
4;114;152.515625;38.515625;9;3;33;557;1;Samaha et al. (2019);Experiment 1;Orientation;1
4;121;126;5;9;3;-7;558;1;Samaha et al. (2019);Experiment 1;Orientation;1
4;102;137.875;35.875;9;3;19;559;1;Samaha et al. (2019);Experiment 1;Orientation;1
4;30;41.8046875;11.8046875;9;3;72;560;1;Samaha et al. (2019);Experiment 1;Orientation;1
4;30;41.8046875;11.8046875;9;3;0;561;0;Samaha et al. (2019);Experiment 1;Orientation;1
4;175;167.7578125;-7.2421875;9;4;35;751;0;Samaha et al. (2019);Experiment 1;Orientation;1
4;134;138;4;9;4;41;752;0;Samaha et al. (2019);Experiment 1;Orientation;1
4;23;40.84375;17.84375;9;4;-69;753;1;Samaha et al. (2019);Experiment 1;Orientation;1
4;32;39.5078125;7.5078125;9;4;-9;754;0;Samaha et al. (2019);Experiment 1;Orientation;1
4;34;34.9296875;0.9296875;9;4;-2;755;0;Samaha et al. (2019);Experiment 1;Orientation;1
4;6;30.9296875;24.9296875;9;4;28;756;0;Samaha et al. (2019);Experiment 1;Orientation;1
4;85;63.390625;-21.609375;9;4;-79;757;1;Samaha et al. (2019);Experiment 1;Orientation;1
4;172;73.7265625;81.7265625;9;4;-87;758;0;Samaha et al. (2019);Experiment 1;Orientation;1
4;93;100.203125;7.203125;9;4;79;759;0;Samaha et al. (2019);Experiment 1;Orientation;1
4;20;21.2421875;1.2421875;9;4;73;760;0;Samaha et al. (2019);Experiment 1;Orientation;1
4;127;140.3828125;13.3828125;9;4;73;761;0;Samaha et al. (2019);Experiment 1;Orientation;1
4;179;13.140625;14.140625;9;4;-52;762;1;Samaha et al. (2019);Experiment 1;Orientation;1
4;98;110.203125;12.203125;9;4;81;763;1;Samaha et al. (2019);Experiment 1;Orientation;1
4;34;33.6875;-0.3125;9;4;64;764;0;Samaha et al. (2019);Experiment 1;Orientation;1
4;12;36.6796875;24.6796875;9;4;22;765;0;Samaha et al. (2019);Experiment 1;Orientation;1
4;7;152.234375;-34.765625;9;4;5;766;1;Samaha et al. (2019);Experiment 1;Orientation;1
4;175;154.0703125;-20.9296875;9;4;12;767;0;Samaha et al. (2019);Experiment 1;Orientation;1
4;161;158.203125;-2.796875;9;4;14;768;1;Samaha et al. (2019);Experiment 1;Orientation;1
4;165;158.9765625;-6.0234375;9;4;-4;769;1;Samaha et al. (2019);Experiment 1;Orientation;1
4;18;34;16;9;4;-33;770;0;Samaha et al. (2019);Experiment 1;Orientation;1
4;108;129.328125;21.328125;9;4;-90;771;0;Samaha et al. (2019);Experiment 1;Orientation;1
4;29;28.6015625;-0.3984375;9;4;79;772;1;Samaha et al. (2019);Experiment 1;Orientation;1
4;81;63.5390625;-17.4609375;9;4;-52;773;0;Samaha et al. (2019);Experiment 1;Orientation;1
4;179;46;47;9;4;82;774;0;Samaha et al. (2019);Experiment 1;Orientation;1
4;105;142.0390625;37.0390625;9;4;74;775;1;Samaha et al. (2019);Experiment 1;Orientation;1
4;164;139.5234375;-24.4765625;9;4;-59;776;0;Samaha et al. (2019);Experiment 1;Orientation;1
4;147;150;3;9;4;17;777;1;Samaha et al. (2019);Experiment 1;Orientation;1
4;145;146.75;1.75;9;4;2;778;1;Samaha et al. (2019);Experiment 1;Orientation;1
4;53;55.3125;2.3125;9;4;-88;779;1;Samaha et al. (2019);Experiment 1;Orientation;1
4;130;130.5;0.5;9;4;-77;780;0;Samaha et al. (2019);Experiment 1;Orientation;1
4;148;140.6171875;-7.3828125;9;4;-18;781;1;Samaha et al. (2019);Experiment 1;Orientation;1
4;125;131.359375;6.359375;9;4;23;782;1;Samaha et al. (2019);Experiment 1;Orientation;1
4;118;116.484375;-1.515625;9;4;7;783;0;Samaha et al. (2019);Experiment 1;Orientation;1
4;125;121.5703125;-3.4296875;9;4;-7;784;1;Samaha et al. (2019);Experiment 1;Orientation;1
4;12;38.53125;26.53125;9;4;-67;785;0;Samaha et al. (2019);Experiment 1;Orientation;1
4;169;150.5;-18.5;9;4;23;786;1;Samaha et al. (2019);Experiment 1;Orientation;1
4;76;56.8125;-19.1875;9;4;-87;787;1;Samaha et al. (2019);Experiment 1;Orientation;1
4;179;14.84375;15.84375;9;4;77;788;1;Samaha et al. (2019);Experiment 1;Orientation;1
4;50;30;-20;9;4;-51;789;1;Samaha et al. (2019);Experiment 1;Orientation;1
4;7;11.984375;4.984375;9;4;43;790;0;Samaha et al. (2019);Experiment 1;Orientation;1
4;59;41.7421875;-17.2578125;9;4;-52;791;1;Samaha et al. (2019);Experiment 1;Orientation;1
4;1;161.2265625;-19.7734375;9;4;58;792;0;Samaha et al. (2019);Experiment 1;Orientation;1
4;135;150.3203125;15.3203125;9;4;46;793;1;Samaha et al. (2019);Experiment 1;Orientation;1
4;48;39.1953125;-8.8046875;9;4;87;794;1;Samaha et al. (2019);Experiment 1;Orientation;1
4;56;58.0234375;2.0234375;9;4;-8;795;0;Samaha et al. (2019);Experiment 1;Orientation;1
4;12;38.8828125;26.8828125;9;4;44;796;1;Samaha et al. (2019);Experiment 1;Orientation;1
4;156;142.6484375;-13.3515625;9;4;36;797;0;Samaha et al. (2019);Experiment 1;Orientation;1
4;87;51.046875;-35.953125;9;4;69;798;1;Samaha et al. (2019);Experiment 1;Orientation;1
4;68;54.796875;-13.203125;9;4;19;799;1;Samaha et al. (2019);Experiment 1;Orientation;1
4;2;6;4;9;4;66;800;0;Samaha et al. (2019);Experiment 1;Orientation;1
4;94;57.125;-36.875;9;4;88;801;0;Samaha et al. (2019);Experiment 1;Orientation;1
4;30;9.4609375;-20.5390625;9;4;64;802;1;Samaha et al. (2019);Experiment 1;Orientation;1
4;28;24.6171875;-3.3828125;9;4;2;803;1;Samaha et al. (2019);Experiment 1;Orientation;1
4;141;146.4140625;5.4140625;9;4;67;804;1;Samaha et al. (2019);Experiment 1;Orientation;1
4;56;16.765625;-39.234375;9;4;85;805;1;Samaha et al. (2019);Experiment 1;Orientation;1
4;51;39.34375;-11.65625;9;4;5;806;0;Samaha et al. (2019);Experiment 1;Orientation;1
4;4;175.8046875;-8.1953125;9;4;47;807;0;Samaha et al. (2019);Experiment 1;Orientation;1
4;81;86.9765625;5.9765625;9;4;-77;808;1;Samaha et al. (2019);Experiment 1;Orientation;1
4;108;140.203125;32.203125;9;4;-27;809;1;Samaha et al. (2019);Experiment 1;Orientation;1
4;7;22.9140625;15.9140625;9;4;-79;810;1;Samaha et al. (2019);Experiment 1;Orientation;1
4;7;22.9140625;15.9140625;9;4;0;811;0;Samaha et al. (2019);Experiment 1;Orientation;1
4;88;89.8203125;1.8203125;9;5;-81;1001;1;Samaha et al. (2019);Experiment 1;Orientation;1
4;31;35.984375;4.984375;9;5;57;1002;1;Samaha et al. (2019);Experiment 1;Orientation;1
4;150;155.359375;5.359375;9;5;61;1003;0;Samaha et al. (2019);Experiment 1;Orientation;1
