obs;block;trial;theta;resp;rt;cond;delta;error;study;experiment;stimulus
1;1;1;96;99.6344826715205;1.69149334931353;1;NaN;3.63448267152052;Fritsche et al. (2020);Experiment 2;Orientation
1;1;2;114;104.693688521351;1.45097605403134;1;-18;-9.30631147864919;Fritsche et al. (2020);Experiment 2;Orientation
1;1;3;71;61.7339246758799;2.00097786421247;1;43;-9.26607532412014;Fritsche et al. (2020);Experiment 2;Orientation
1;1;4;138;126.302279687735;1.75100849103546;-1;-67;-11.6977203122647;Fritsche et al. (2020);Experiment 2;Orientation
1;1;5;139;136.703678112834;2.28434711473528;-1;-1;-2.29632188716604;Fritsche et al. (2020);Experiment 2;Orientation
1;1;6;81;80.1405577972809;2.45099031607242;1;58;-0.859442202719052;Fritsche et al. (2020);Experiment 2;Orientation
1;1;7;134;132.494267389341;2.43428251499063;-1;-53;-1.50573261065941;Fritsche et al. (2020);Experiment 2;Orientation
1;1;8;62;64.9750902246401;1.28434857750835;1;72;2.9750902246401;Fritsche et al. (2020);Experiment 2;Orientation
1;1;9;12;16.0869881020216;2.06788330430572;-1;50;4.08698810202164;Fritsche et al. (2020);Experiment 2;Orientation
1;1;10;104;103.952215954999;2.43425508798464;-1;88;-0.0477840450011513;Fritsche et al. (2020);Experiment 2;Orientation
1;1;11;147;146.292110215397;1.76767240890695;1;-43;-0.707889784603253;Fritsche et al. (2020);Experiment 2;Orientation
1;1;12;142;148.380656866819;3.66753750460339;-1;5;6.38065686681878;Fritsche et al. (2020);Experiment 2;Orientation
1;1;13;132;133.690881998713;1.65103193198229;-1;10;1.69088199871305;Fritsche et al. (2020);Experiment 2;Orientation
1;1;14;25;35.6116884315451;2.00092154742379;-1;-73;10.6116884315451;Fritsche et al. (2020);Experiment 2;Orientation
1;1;15;45;49.3649550859704;1.33429717929903;1;-20;4.36495508597039;Fritsche et al. (2020);Experiment 2;Orientation
1;1;16;68;69.8877506136483;1.68405112247638;1;-23;1.88775061364832;Fritsche et al. (2020);Experiment 2;Orientation
1;1;17;87;84.2299467618416;2.31760546872465;-1;-19;-2.77005323815837;Fritsche et al. (2020);Experiment 2;Orientation
1;1;18;17;26.0653349296808;1.35095926870054;-1;70;9.06533492968081;Fritsche et al. (2020);Experiment 2;Orientation
1;1;19;171;167.265743956388;2.83423226871309;1;26;-3.73425604361233;Fritsche et al. (2020);Experiment 2;Orientation
1;1;20;93;90.1648332378129;3.46763777773958;1;78;-2.83516676218714;Fritsche et al. (2020);Experiment 2;Orientation
1;1;21;96;95.0491608944008;2.40103257194642;-1;-3;-0.950839105599229;Fritsche et al. (2020);Experiment 2;Orientation
1;1;22;105;108.994783604783;3.50089284048954;-1;-9;3.99478360478331;Fritsche et al. (2020);Experiment 2;Orientation
1;1;23;136;132.052742455252;1.63429524112144;-1;-31;-3.947257544748;Fritsche et al. (2020);Experiment 2;Orientation
1;1;24;50;47.2883138655813;1.68431259327554;1;86;-2.71168613441871;Fritsche et al. (2020);Experiment 2;Orientation
1;1;25;37;40.7996664028427;2.76757659722716;1;13;3.79966640284268;Fritsche et al. (2020);Experiment 2;Orientation
1;1;26;39;39.5694561669224;3.05094182512767;1;-2;0.569456166922357;Fritsche et al. (2020);Experiment 2;Orientation
1;1;27;56;56.7347448198008;3.25089750308325;-1;-17;0.734744819800817;Fritsche et al. (2020);Experiment 2;Orientation
1;1;28;123;126.053853731959;3.25086568775441;-1;-67;3.05385373195855;Fritsche et al. (2020);Experiment 2;Orientation
1;1;29;168;155.869395269787;1.10102061377256;1;-45;-12.1306047302135;Fritsche et al. (2020);Experiment 2;Orientation
1;1;30;95;106.204143749088;2.35097316505198;-1;73;11.204143749088;Fritsche et al. (2020);Experiment 2;Orientation
1;1;31;105;102.522654224069;1.78435936546157;1;-10;-2.47734577593056;Fritsche et al. (2020);Experiment 2;Orientation
1;1;32;23;31.5671669311759;1.73431275783878;-1;82;8.56716693117594;Fritsche et al. (2020);Experiment 2;Orientation
1;1;33;57;63.9161531930863;1.88425766612272;-1;-34;6.91615319308629;Fritsche et al. (2020);Experiment 2;Orientation
1;1;34;156;151.210849982475;1.40092908070801;-1;81;-4.78915001752461;Fritsche et al. (2020);Experiment 2;Orientation
1;1;35;19;20.0264354436922;1.83435441031907;-1;-43;1.02643544369222;Fritsche et al. (2020);Experiment 2;Orientation
1;1;36;173;171.217484555019;1.2342950217062;-1;26;-1.78251544498139;Fritsche et al. (2020);Experiment 2;Orientation
1;1;37;38;33.8544352182422;1.3344094471795;1;-45;-4.14556478175778;Fritsche et al. (2020);Experiment 2;Orientation
1;1;38;178;167.700455535026;0.701078905301983;1;40;-10.2995444649742;Fritsche et al. (2020);Experiment 2;Orientation
1;1;39;73;57.7680278793408;2.25099587461227;-1;-75;-15.2319721206592;Fritsche et al. (2020);Experiment 2;Orientation
1;1;40;6;6.96918656840445;1.85145716029365;1;67;0.969186568404453;Fritsche et al. (2020);Experiment 2;Orientation
1;1;41;136;137.089152958461;1.73441698046372;1;50;1.0891529584612;Fritsche et al. (2020);Experiment 2;Orientation
1;1;42;155;141.931628608378;2.03423658389875;-1;-19;-13.0683713916223;Fritsche et al. (2020);Experiment 2;Orientation
1;1;43;18;24.4019576773829;1.68436781298078;-1;-43;6.40195767738294;Fritsche et al. (2020);Experiment 2;Orientation
1;1;44;24;35.8435140234406;2.5343091740433;1;-6;11.8435140234406;Fritsche et al. (2020);Experiment 2;Orientation
1;1;45;47;45.4566622068603;1.73433140819907;1;-23;-1.54333779313968;Fritsche et al. (2020);Experiment 2;Orientation
1;1;46;95;91.6303830148239;2.45095411242073;-1;-48;-3.36961698517612;Fritsche et al. (2020);Experiment 2;Orientation
1;1;47;2;2.43990174927369;1.36763708291983;1;-87;0.439901749273687;Fritsche et al. (2020);Experiment 2;Orientation
1;1;48;65;56.9317279562229;1.76762706291993;1;-63;-8.06827204377712;Fritsche et al. (2020);Experiment 2;Orientation
1;1;49;84;100.376938923371;2.56777195065661;-1;-19;16.3769389233711;Fritsche et al. (2020);Experiment 2;Orientation
1;1;50;150;141.147056643128;2.08417384919085;-1;-66;-8.85294335687172;Fritsche et al. (2020);Experiment 2;Orientation
1;1;51;77;67.4263288621884;1.41762079127875;1;73;-9.57367113781163;Fritsche et al. (2020);Experiment 2;Orientation
1;1;52;34;47.4512821562275;1.51766756346842;1;43;13.4512821562275;Fritsche et al. (2020);Experiment 2;Orientation
1;1;53;9;16.9470092490197;2.45109709855387;1;25;7.94700924901967;Fritsche et al. (2020);Experiment 2;Orientation
1;1;54;106;113.889609703157;1.35102948184067;-1;83;7.88960970315651;Fritsche et al. (2020);Experiment 2;Orientation
1;1;55;160;150.609297996503;1.45103712482887;1;-54;-9.39070200349713;Fritsche et al. (2020);Experiment 2;Orientation
1;1;56;7;22.5014983274924;2.03428119849195;-1;-27;15.5014983274924;Fritsche et al. (2020);Experiment 2;Orientation
1;1;57;75;70.3115174640744;1.41772501390733;1;-68;-4.68848253592559;Fritsche et al. (2020);Experiment 2;Orientation
1;1;58;147;142.403314270303;1.28438916947562;-1;-72;-4.59668572969716;Fritsche et al. (2020);Experiment 2;Orientation
1;1;59;170;157.179830181568;1.7176806552925;1;-23;-12.820169818432;Fritsche et al. (2020);Experiment 2;Orientation
1;1;60;19;23.6412681028624;1.51772314887057;1;-29;4.64126810286244;Fritsche et al. (2020);Experiment 2;Orientation
1;1;61;55;40.6807541512322;1.61767484076699;1;-36;-14.3192458487678;Fritsche et al. (2020);Experiment 2;Orientation
1;1;62;126;125.526535001789;1.40109985953677;1;-71;-0.473464998211256;Fritsche et al. (2020);Experiment 2;Orientation
1;1;63;175;168.125750164288;1.81765940850528;-1;-49;-6.87424983571248;Fritsche et al. (2020);Experiment 2;Orientation
1;1;64;90;90.1455612730557;2.43426167046346;1;85;0.145561273055677;Fritsche et al. (2020);Experiment 2;Orientation
1;1;65;4;6.70651895382315;2.41766248032945;1;86;2.70651895382315;Fritsche et al. (2020);Experiment 2;Orientation
1;1;66;4;8.60961689006029;2.93427428689029;1;0;4.60961689006029;Fritsche et al. (2020);Experiment 2;Orientation
1;1;67;14;18.441365803315;3.15092606373946;1;-10;4.44136580331499;Fritsche et al. (2020);Experiment 2;Orientation
1;1;68;141;133.678361562977;2.56757813314471;1;53;-7.32163843702278;Fritsche et al. (2020);Experiment 2;Orientation
1;1;69;106;102.624143338632;1.91768533616778;-1;35;-3.3758566613681;Fritsche et al. (2020);Experiment 2;Orientation
1;1;70;174;162.168362408436;1.86770345627519;-1;-68;-11.8316375915635;Fritsche et al. (2020);Experiment 2;Orientation
1;1;71;168;172.68611511695;0.93429805695996;1;6;4.68611511695042;Fritsche et al. (2020);Experiment 2;Orientation
1;1;72;32;39.5908849967061;1.13410892032334;-1;-44;7.59088499670614;Fritsche et al. (2020);Experiment 2;Orientation
1;1;73;11;14.009905734554;2.40091884129288;-1;21;3.00990573455395;Fritsche et al. (2020);Experiment 2;Orientation
1;1;74;86;86.5066043279513;2.20097742537837;1;-75;0.506604327951337;Fritsche et al. (2020);Experiment 2;Orientation
1;1;75;156;157.669072623723;2.10090615173249;1;-70;1.66907262372337;Fritsche et al. (2020);Experiment 2;Orientation
1;1;76;180;1.40410809980003;1.33436336980594;1;-24;1.40410809980003;Fritsche et al. (2020);Experiment 2;Orientation
1;1;77;36;29.804574741557;1.9343499854258;-1;-36;-6.19542525844304;Fritsche et al. (2020);Experiment 2;Orientation
1;1;78;27;29.7884776410515;2.46760998504033;-1;9;2.78847764105155;Fritsche et al. (2020);Experiment 2;Orientation
1;1;79;150;152.769909261027;1.41772172266428;-1;57;2.76990926102729;Fritsche et al. (2020);Experiment 2;Orientation
1;1;80;104;110.202390572041;1.63429377834836;1;46;6.20239057204063;Fritsche et al. (2020);Experiment 2;Orientation
1;1;81;122;125.683580785258;1.234316231923;-1;-18;3.68358078525802;Fritsche et al. (2020);Experiment 2;Orientation
1;1;82;38;39.5930612471265;1.06762219919983;-1;84;1.59306124712646;Fritsche et al. (2020);Experiment 2;Orientation
1;1;83;63;60.3861060384899;1.43435967630285;1;-25;-2.61389396151012;Fritsche et al. (2020);Experiment 2;Orientation
1;1;84;115;119.589901968215;1.28438039283355;1;-52;4.58990196821536;Fritsche et al. (2020);Experiment 2;Orientation
1;1;85;149;142.129662697117;1.58432579480723;1;-34;-6.8703373028826;Fritsche et al. (2020);Experiment 2;Orientation
1;1;86;160;160.422903008127;2.4176145744932;-1;-11;0.422903008126866;Fritsche et al. (2020);Experiment 2;Orientation
1;1;87;134;141.10500972881;1.28435296582757;-1;26;7.1050097288097;Fritsche et al. (2020);Experiment 2;Orientation
1;1;88;77;71.0037787589203;1.61765180208386;-1;57;-5.99622124107972;Fritsche et al. (2020);Experiment 2;Orientation
1;1;89;103;103.812578589844;1.3010841712894;-1;-26;0.812578589844279;Fritsche et al. (2020);Experiment 2;Orientation
1;1;90;116;123.334474629046;1.68434660276398;1;-13;7.33447462904581;Fritsche et al. (2020);Experiment 2;Orientation
1;1;91;82;75.1337898998524;1.35107080519811;-1;34;-6.86621010014755;Fritsche et al. (2020);Experiment 2;Orientation
1;1;92;52;47.611641327467;1.16774174437887;-1;30;-4.38835867253302;Fritsche et al. (2020);Experiment 2;Orientation
1;1;93;85;81.9953924304508;2.4843024269976;1;-33;-3.00460756954915;Fritsche et al. (2020);Experiment 2;Orientation
1;1;94;106;111.270291927469;3.10092333932334;-1;-21;5.27029192746872;Fritsche et al. (2020);Experiment 2;Orientation
1;1;95;11;10.4211173414821;1.46773870912511;-1;-85;-0.57888265851787;Fritsche et al. (2020);Experiment 2;Orientation
1;1;96;112;117.955527629844;2.0676214678133;1;79;5.95552762984408;Fritsche et al. (2020);Experiment 2;Orientation
1;1;97;137;149.864202502764;2.11764284259334;1;-25;12.8642025027636;Fritsche et al. (2020);Experiment 2;Orientation
1;1;98;70;56.0968370307647;0.834660495711432;-1;67;-13.9031629692353;Fritsche et al. (2020);Experiment 2;Orientation
1;1;99;81;69.8370839388116;2.21754918851002;-1;-11;-11.1629160611884;Fritsche et al. (2020);Experiment 2;Orientation
1;1;100;19;29.8149849973213;2.41756520588024;1;62;10.8149849973213;Fritsche et al. (2020);Experiment 2;Orientation
1;1;101;121;124.101052902085;2.25102951840745;1;78;3.10105290208486;Fritsche et al. (2020);Experiment 2;Orientation
1;2;1;119;114.144475502148;1.65093941154919;1;2;-4.85552449785163;Fritsche et al. (2020);Experiment 2;Orientation
1;2;2;89;87.0618054171352;1.83437598622913;-1;30;-1.93819458286478;Fritsche et al. (2020);Experiment 2;Orientation
1;2;3;42;36.9928600667722;1.31777551616688;-1;47;-5.00713993322784;Fritsche et al. (2020);Experiment 2;Orientation
1;2;4;152;145.386394044873;1.25116080234875;1;70;-6.6136059551271;Fritsche et al. (2020);Experiment 2;Orientation
1;2;5;161;147.157124165976;1.86768188036513;-1;-9;-13.8428758340245;Fritsche et al. (2020);Experiment 2;Orientation
1;2;6;159;152.37597019245;1.91771459164374;-1;2;-6.62402980754985;Fritsche et al. (2020);Experiment 2;Orientation
1;2;7;129;126.802988288498;1.68432173561087;1;30;-2.19701171150236;Fritsche et al. (2020);Experiment 2;Orientation
1;2;8;87;90.5189004330266;1.25098819505365;-1;42;3.51890043302663;Fritsche et al. (2020);Experiment 2;Orientation
1;2;9;77;77.8667052619237;1.93434413433351;-1;10;0.866705261923698;Fritsche et al. (2020);Experiment 2;Orientation
1;2;10;20;22.1445913057265;2.63435667761587;1;57;2.14459130572655;Fritsche et al. (2020);Experiment 2;Orientation
1;2;11;97;100.083589188101;1.98435490400152;1;-77;3.08358918810077;Fritsche et al. (2020);Experiment 2;Orientation
1;2;12;69;66.6674383185785;2.30091595231715;1;28;-2.33256168142152;Fritsche et al. (2020);Experiment 2;Orientation
1;2;13;173;162.710083041944;1.90087148399471;1;76;-10.2899169580559;Fritsche et al. (2020);Experiment 2;Orientation
1;2;14;99;112.043579718854;2.41766650295904;1;74;13.0435797188538;Fritsche et al. (2020);Experiment 2;Orientation
1;2;15;33;34.5648062906338;2.35098047891734;1;66;1.56480629063377;Fritsche et al. (2020);Experiment 2;Orientation
1;2;16;115;114.457770391311;2.16767701664139;1;-82;-0.542229608689155;Fritsche et al. (2020);Experiment 2;Orientation
1;2;17;129;130.356373235557;1.25100538264087;1;-14;1.35637323555659;Fritsche et al. (2020);Experiment 2;Orientation
1;2;18;117;129.129134852553;2.46764106897899;-1;12;12.1291348525526;Fritsche et al. (2020);Experiment 2;Orientation
1;2;19;166;160.224088041628;1.08440533312751;1;-49;-5.77591195837243;Fritsche et al. (2020);Experiment 2;Orientation
1;2;20;102;113.365462143356;2.66764172723197;-1;64;11.3654621433563;Fritsche et al. (2020);Experiment 2;Orientation
1;2;21;155;141.603357486798;2.61762035244828;1;-53;-13.3966425132016;Fritsche et al. (2020);Experiment 2;Orientation
1;2;22;20;25.7000548218926;1.6010365214388;1;-45;5.70005482189265;Fritsche et al. (2020);Experiment 2;Orientation
1;2;23;113;120.900779367182;2.25091944468659;-1;87;7.90077936718151;Fritsche et al. (2020);Experiment 2;Orientation
1;2;24;123;125.330410921884;1.13435393491454;-1;-10;2.33041092188364;Fritsche et al. (2020);Experiment 2;Orientation
1;2;25;165;169.019755894377;1.85091666541848;1;-42;4.0197558943774;Fritsche et al. (2020);Experiment 2;Orientation
1;2;26;116;118.688316125559;1.81772267346969;-1;49;2.6883161255586;Fritsche et al. (2020);Experiment 2;Orientation
1;2;27;134;130.892140738764;2.05100289592519;-1;-18;-3.107859261236;Fritsche et al. (2020);Experiment 2;Orientation
1;2;28;129;137.977686271714;1.16768359912385;-1;5;8.97768627171445;Fritsche et al. (2020);Experiment 2;Orientation
1;2;29;61;52.1205629033724;0.750650842866889;1;68;-8.87943709662765;Fritsche et al. (2020);Experiment 2;Orientation
1;2;30;17;14.5511316519906;0.801104832968122;-1;44;-2.44886834800937;Fritsche et al. (2020);Experiment 2;Orientation
1;2;31;25;21.9482708405555;1.76770568700886;1;-8;-3.05172915944453;Fritsche et al. (2020);Experiment 2;Orientation
1;2;32;48;43.3333853865139;2.83430138477343;-1;-23;-4.66661461348607;Fritsche et al. (2020);Experiment 2;Orientation
1;2;33;158;152.348076536866;0.684412793274532;1;70;-5.65192346313358;Fritsche et al. (2020);Experiment 2;Orientation
1;2;34;74;67.2999326207539;1.5843978364137;1;84;-6.70006737924606;Fritsche et al. (2020);Experiment 2;Orientation
1;2;35;17;18.3100621392083;1.61776114441454;1;57;1.31006213920833;Fritsche et al. (2020);Experiment 2;Orientation
1;2;36;144;147.450484800187;1.55101624373856;-1;53;3.45048480018698;Fritsche et al. (2020);Experiment 2;Orientation
1;2;37;58;59.9297956628185;1.35102289935821;1;86;1.92979566281851;Fritsche et al. (2020);Experiment 2;Orientation
1;2;38;98;97.4173867888646;2.40094553691597;-1;-40;-0.582613211135396;Fritsche et al. (2020);Experiment 2;Orientation
1;2;39;153;152.019489542502;1.50096890472196;-1;-55;-0.980510457497985;Fritsche et al. (2020);Experiment 2;Orientation
1;2;40;174;173.787518460106;2.70095456954004;-1;-21;-0.212481539893531;Fritsche et al. (2020);Experiment 2;Orientation
1;2;41;87;86.7565703989302;0.817792155219649;-1;87;-0.243429601069835;Fritsche et al. (2020);Experiment 2;Orientation
1;2;42;129;117.130045792319;2.01763117697556;-1;-42;-11.8699542076807;Fritsche et al. (2020);Experiment 2;Orientation
1;2;43;137;133.770417068764;1.5176807284297;-1;-8;-3.22958293123611;Fritsche et al. (2020);Experiment 2;Orientation
1;2;44;164;163.068974572596;1.68433270641253;-1;-27;-0.931025427404165;Fritsche et al. (2020);Experiment 2;Orientation
1;2;45;67;62.9508658878846;1.51781018390466;1;-83;-4.04913411211541;Fritsche et al. (2020);Experiment 2;Orientation
1;2;46;140;139.080607351592;2.18439103451601;-1;-73;-0.919392648408149;Fritsche et al. (2020);Experiment 2;Orientation
1;2;47;5;2.14336681476242;1.50100876530269;-1;-45;-2.85663318523758;Fritsche et al. (2020);Experiment 2;Orientation
1;2;48;141;137.669416366977;1.28433980086265;1;44;-3.33058363302311;Fritsche et al. (2020);Experiment 2;Orientation
1;2;49;52;67.6717589432431;1.90106530151024;1;89;15.6717589432431;Fritsche et al. (2020);Experiment 2;Orientation
1;2;50;43;49.7382605537879;1.63436033455218;1;9;6.73826055378795;Fritsche et al. (2020);Experiment 2;Orientation
1;2;51;169;175.263254260211;2.9508661631553;1;54;6.2632542602106;Fritsche et al. (2020);Experiment 2;Orientation
1;2;52;67;60.7261824505018;1.2343246428718;-1;-78;-6.27381754949822;Fritsche et al. (2020);Experiment 2;Orientation
1;2;53;161;157.23731022863;0.851109385850577;-1;86;-3.76268977136988;Fritsche et al. (2020);Experiment 2;Orientation
1;2;54;92;98.280090526287;2.20094926698584;1;69;6.28009052628701;Fritsche et al. (2020);Experiment 2;Orientation
1;2;55;14;25.1227847420329;2.83429736214384;-1;78;11.1227847420329;Fritsche et al. (2020);Experiment 2;Orientation
1;2;56;31;34.1848370594611;1.23434000199632;-1;-17;3.18483705946111;Fritsche et al. (2020);Experiment 2;Orientation
1;2;57;4;179.06521422752;1.51768548244945;1;27;-4.9347857724801;Fritsche et al. (2020);Experiment 2;Orientation
1;2;58;102;108.41080929219;2.2009748655255;1;82;6.41080929219014;Fritsche et al. (2020);Experiment 2;Orientation
1;2;59;5;8.00571567318745;1.58436528969833;-1;-83;3.00571567318745;Fritsche et al. (2020);Experiment 2;Orientation
1;2;60;62;64.1242869765346;1.56771599956119;1;-57;2.12428697653458;Fritsche et al. (2020);Experiment 2;Orientation
1;2;61;79;64.8589659998975;1.701011252022;1;-17;-14.1410340001025;Fritsche et al. (2020);Experiment 2;Orientation
1;2;62;22;50.2046443134019;1.2677556041599;1;57;28.2046443134019;Fritsche et al. (2020);Experiment 2;Orientation
1;2;63;146;142.975176353881;1.30069105085931;1;56;-3.0248236461193;Fritsche et al. (2020);Experiment 2;Orientation
1;2;64;76;76.2832367572511;1.83431637820104;1;70;0.283236757251075;Fritsche et al. (2020);Experiment 2;Orientation
1;2;65;139;134.515588475202;2.83424141104842;1;-63;-4.48441152479828;Fritsche et al. (2020);Experiment 2;Orientation
1;2;66;176;171.64643022254;1.35104520665482;-1;-37;-4.35356977746042;Fritsche et al. (2020);Experiment 2;Orientation
1;2;67;30;31.7687872115763;1.51775313572944;-1;-34;1.76878721157631;Fritsche et al. (2020);Experiment 2;Orientation
1;2;68;113;117.780647804522;2.46771201350566;-1;-83;4.78064780452175;Fritsche et al. (2020);Experiment 2;Orientation
1;2;69;11;10.8242872304945;1.95091077775214;-1;-78;-0.175712769505452;Fritsche et al. (2020);Experiment 2;Orientation
1;2;70;25;27.2438819607283;3.41757032558962;1;-14;2.24388196072832;Fritsche et al. (2020);Experiment 2;Orientation
1;2;71;167;156.774045331659;1.56773501562202;1;38;-10.2259546683414;Fritsche et al. (2020);Experiment 2;Orientation
1;2;72;56;145.479621579676;1.71746489617362;1;-69;89.4796215796763;Fritsche et al. (2020);Experiment 2;Orientation
1;2;73;93;94.5278682188599;1.66769073014802;1;-37;1.52786821885985;Fritsche et al. (2020);Experiment 2;Orientation
1;2;74;30;30.1306809013254;2.05089538206084;1;63;0.130680901325384;Fritsche et al. (2020);Experiment 2;Orientation
1;2;75;137;146.450222696627;2.66755359511444;-1;73;9.45022269662746;Fritsche et al. (2020);Experiment 2;Orientation
1;2;76;71;67.3021633766502;2.284374176048;1;66;-3.69783662334977;Fritsche et al. (2020);Experiment 2;Orientation
1;2;77;155;153.580099954323;2.23429246185333;-1;-84;-1.41990004567688;Fritsche et al. (2020);Experiment 2;Orientation
1;2;78;12;16.170026523981;1.73427253155751;1;-37;4.17002652398098;Fritsche et al. (2020);Experiment 2;Orientation
1;2;79;66;61.8331339151964;2.11769477105918;1;-54;-4.16686608480362;Fritsche et al. (2020);Experiment 2;Orientation
1;2;80;46;55.3503185564808;1.96760760803227;1;20;9.35031855648084;Fritsche et al. (2020);Experiment 2;Orientation
1;2;81;84;75.6628841849697;1.68441937575699;-1;-38;-8.33711581503034;Fritsche et al. (2020);Experiment 2;Orientation
1;2;82;99;103.249227991011;1.28437271327493;1;-15;4.24922799101094;Fritsche et al. (2020);Experiment 2;Orientation
1;2;83;159;154.429693198539;2.08436035283376;-1;-60;-4.57030680146096;Fritsche et al. (2020);Experiment 2;Orientation
1;2;84;23;27.3721680806313;1.43434724272811;-1;-44;4.3721680806313;Fritsche et al. (2020);Experiment 2;Orientation
1;2;85;51;38.5850594282064;1.38441180589871;-1;-28;-12.4149405717936;Fritsche et al. (2020);Experiment 2;Orientation
1;2;86;123;140.902423144742;1.16770334657122;-1;-72;17.902423144742;Fritsche et al. (2020);Experiment 2;Orientation
1;2;87;172;165.619318774578;2.40096016465031;-1;-49;-6.38068122542239;Fritsche et al. (2020);Experiment 2;Orientation
1;2;88;26;30.7223003926082;2.15098640315409;-1;-34;4.7223003926082;Fritsche et al. (2020);Experiment 2;Orientation
1;2;89;42;38.9280847788114;1.9843172375804;1;-16;-3.07191522118862;Fritsche et al. (2020);Experiment 2;Orientation
1;2;90;8;10.0816960405904;1.80107740596213;-1;34;2.0816960405904;Fritsche et al. (2020);Experiment 2;Orientation
1;2;91;171;9.63830606357631;1.65101730424794;1;17;18.6383060635763;Fritsche et al. (2020);Experiment 2;Orientation
1;2;92;145;142.914601598412;1.88428728729195;-1;26;-2.08539840158812;Fritsche et al. (2020);Experiment 2;Orientation
1;2;93;14;19.012544955418;0.900978266472521;1;-49;5.01254495541798;Fritsche et al. (2020);Experiment 2;Orientation
1;2;94;157;148.554036601977;2.38435366064368;-1;37;-8.44596339802266;Fritsche et al. (2020);Experiment 2;Orientation
1;2;95;128;121.335517479964;1.15100724767763;1;29;-6.66448252003627;Fritsche et al. (2020);Experiment 2;Orientation
1;2;96;55;47.7187862848063;0.750802239945187;-1;73;-7.28121371519366;Fritsche et al. (2020);Experiment 2;Orientation
1;2;97;153;147.435143891807;2.01768273974449;-1;82;-5.56485610819294;Fritsche et al. (2020);Experiment 2;Orientation
1;2;98;37;38.2705598809994;2.45097971096402;1;-64;1.27055988099936;Fritsche et al. (2020);Experiment 2;Orientation
1;2;99;45;55.7190387183209;1.20107360274778;-1;-8;10.7190387183209;Fritsche et al. (2020);Experiment 2;Orientation
1;2;100;54;52.628195572248;1.61766898967471;-1;-9;-1.371804427752;Fritsche et al. (2020);Experiment 2;Orientation
1;2;101;134;128.205227429332;1.40103476610602;1;-80;-5.79477257066813;Fritsche et al. (2020);Experiment 2;Orientation
1;3;1;80;66.8855623761221;1.16761082613448;-1;54;-13.1144376238779;Fritsche et al. (2020);Experiment 2;Orientation
1;3;2;35;35.0953254107736;3.11765893310076;-1;45;0.0953254107736115;Fritsche et al. (2020);Experiment 2;Orientation
1;3;3;14;21.5927942171008;1.31771883368492;1;21;7.59279421710082;Fritsche et al. (2020);Experiment 2;Orientation
1;3;4;81;63.3146306397318;2.317680070184;1;-67;-17.6853693602682;Fritsche et al. (2020);Experiment 2;Orientation
1;3;5;87;71.0770675024393;1.28429884320212;1;-6;-15.9229324975607;Fritsche et al. (2020);Experiment 2;Orientation
1;3;6;159;155.783591799849;3.20101033778701;-1;-72;-3.21640820015119;Fritsche et al. (2020);Experiment 2;Orientation
1;3;7;99;109.481327520047;1.16775820058319;1;60;10.4813275200471;Fritsche et al. (2020);Experiment 2;Orientation
1;3;8;127;132.676492475564;1.58450388750498;1;-28;5.67649247556437;Fritsche et al. (2020);Experiment 2;Orientation
1;3;9;27;25.585621508198;1.35097791906446;-1;-80;-1.414378491802;Fritsche et al. (2020);Experiment 2;Orientation
1;3;10;2;0.324748162451456;0.951055592347984;-1;25;-1.67525183754854;Fritsche et al. (2020);Experiment 2;Orientation
1;3;11;32;38.6993541761083;0.967663559127686;1;-30;6.69935417610826;Fritsche et al. (2020);Experiment 2;Orientation
1;3;12;108;114.253872540872;1.78432133334718;1;-76;6.25387254087207;Fritsche et al. (2020);Experiment 2;Orientation
1;3;13;79;63.2197355954592;2.451014451839;1;29;-15.7802644045408;Fritsche et al. (2020);Experiment 2;Orientation
1;3;14;22;39.8522938871231;1.53436768498796;1;57;17.8522938871231;Fritsche et al. (2020);Experiment 2;Orientation
1;3;15;104;110.563982339188;2.60101421413856;-1;-82;6.56398233918796;Fritsche et al. (2020);Experiment 2;Orientation
1;3;16;66;64.9257551085531;1.88430337779937;1;38;-1.07424489144685;Fritsche et al. (2020);Experiment 2;Orientation
1;3;17;65;64.329804179327;2.3176109541273;1;1;-0.670195820673044;Fritsche et al. (2020);Experiment 2;Orientation
1;3;18;158;152.101050695825;2.53424700615869;1;87;-5.89894930417486;Fritsche et al. (2020);Experiment 2;Orientation
1;3;19;82;70.9468588001534;1.66760406080721;-1;76;-11.0531411998466;Fritsche et al. (2020);Experiment 2;Orientation
1;3;20;147;142.711288970802;1.26767953992749;-1;-65;-4.288711029198;Fritsche et al. (2020);Experiment 2;Orientation
1;3;21;53;48.5834987852874;2.15096226738751;1;-86;-4.41650121471257;Fritsche et al. (2020);Experiment 2;Orientation
1;3;22;100;104.239081788652;1.834345633677;1;-47;4.23908178865226;Fritsche et al. (2020);Experiment 2;Orientation
1;3;23;160;148.348175827634;1.76769325343048;1;-60;-11.6518241723662;Fritsche et al. (2020);Experiment 2;Orientation
1;3;24;51;56.948293666911;2.26757787715906;1;-71;5.94829366691102;Fritsche et al. (2020);Experiment 2;Orientation
1;3;25;174;171.702085919813;2.45091242337367;-1;57;-2.29791408018718;Fritsche et al. (2020);Experiment 2;Orientation
1;3;26;109;120.658797769651;1.30103626544951;-1;65;11.6587977696511;Fritsche et al. (2020);Experiment 2;Orientation
1;3;27;143;139.874319539864;1.30106808077835;1;-34;-3.12568046013558;Fritsche et al. (2020);Experiment 2;Orientation
1;3;28;50;60.4447940560911;1.88432970772556;1;-87;10.4447940560911;Fritsche et al. (2020);Experiment 2;Orientation
1;3;29;107;108.252703121986;1.55099539921139;1;-57;1.25270312198613;Fritsche et al. (2020);Experiment 2;Orientation
1;3;30;45;53.4141169064332;1.28433541254708;-1;62;8.41411690643321;Fritsche et al. (2020);Experiment 2;Orientation
1;3;31;150;143.09945079367;1.53437609593675;-1;75;-6.90054920632991;Fritsche et al. (2020);Experiment 2;Orientation
1;3;32;119;130.01427333556;1.7010207600506;-1;31;11.0142733355604;Fritsche et al. (2020);Experiment 2;Orientation
1;3;33;56;50.7157338800656;1.91770727777475;1;63;-5.28426611993439;Fritsche et al. (2020);Experiment 2;Orientation
1;3;34;87;80.2627734287694;0.984466806188721;-1;-31;-6.73722657123058;Fritsche et al. (2020);Experiment 2;Orientation
1;3;35;99;110.17188362145;0.734356275352184;1;-12;11.1718836214497;Fritsche et al. (2020);Experiment 2;Orientation
1;3;36;103;118.741053353079;1.50103143829983;-1;-4;15.7410533530791;Fritsche et al. (2020);Experiment 2;Orientation
1;3;37;2;0.517280853550474;2.3843383015228;-1;-79;-1.48271914644953;Fritsche et al. (2020);Experiment 2;Orientation
1;3;38;50;37.7236502678007;1.60103396158229;1;-48;-12.2763497321993;Fritsche et al. (2020);Experiment 2;Orientation
1;3;39;19;26.3989732424332;1.71767443850331;-1;31;7.39897324243321;Fritsche et al. (2020);Experiment 2;Orientation
1;3;40;72;53.8685273166637;0.634372402437293;-1;-53;-18.1314726833363;Fritsche et al. (2020);Experiment 2;Orientation
1;3;41;16;16.0729983704213;1.90101300735114;-1;56;0.0729983704212742;Fritsche et al. (2020);Experiment 2;Orientation
1;3;42;142;129.6696301026;2.10103012180116;-1;54;-12.3303698973999;Fritsche et al. (2020);Experiment 2;Orientation
1;3;43;87;80.8220138902246;1.78430999685224;-1;55;-6.1779861097754;Fritsche et al. (2020);Experiment 2;Orientation
1;3;44;113;116.935986316898;1.55104293935437;1;-26;3.93598631689801;Fritsche et al. (2020);Experiment 2;Orientation
1;3;45;99;110.843380991449;2.00106160800351;1;14;11.8433809914486;Fritsche et al. (2020);Experiment 2;Orientation
1;3;46;110;120.400673835036;2.11767904624139;-1;-11;10.4006738350355;Fritsche et al. (2020);Experiment 2;Orientation
1;3;47;146;136.463066753847;3.83424506798474;-1;-36;-9.53693324615264;Fritsche et al. (2020);Experiment 2;Orientation
1;3;48;15;19.7053882045829;1.61769166266458;-1;-49;4.7053882045829;Fritsche et al. (2020);Experiment 2;Orientation
1;3;49;154;161.536248323305;1.81764587785074;-1;41;7.5362483233047;Fritsche et al. (2020);Experiment 2;Orientation
1;3;50;101;110.790867908361;1.10108168457373;-1;53;9.79086790836084;Fritsche et al. (2020);Experiment 2;Orientation
1;3;51;61;56.5140194026738;1.8843626201342;1;40;-4.4859805973262;Fritsche et al. (2020);Experiment 2;Orientation
1;3;52;153;153.25643743164;1.18439542283159;-1;88;0.256437431640279;Fritsche et al. (2020);Experiment 2;Orientation
1;3;53;60;63.5753457235803;0.66770791773888;-1;-87;3.57534572358034;Fritsche et al. (2020);Experiment 2;Orientation
1;3;54;145;150.300920253629;0.717731486682169;1;-85;5.30092025362899;Fritsche et al. (2020);Experiment 2;Orientation
1;3;55;142;143.337786142284;2.25082619286331;-1;3;1.33778614228385;Fritsche et al. (2020);Experiment 2;Orientation
1;3;56;81;72.1966103874426;2.45094606716884;-1;61;-8.80338961255738;Fritsche et al. (2020);Experiment 2;Orientation
1;3;57;112;110.885124355927;2.10107985610739;1;-31;-1.11487564407258;Fritsche et al. (2020);Experiment 2;Orientation
1;3;58;98;105.898399049742;1.8510022376795;-1;14;7.89839904974201;Fritsche et al. (2020);Experiment 2;Orientation
1;3;59;171;165.033540393556;1.76768996219107;1;-73;-5.96645960644395;Fritsche et al. (2020);Experiment 2;Orientation
1;3;60;69;70.2044646947527;0.651072889650095;1;-78;1.20446469475272;Fritsche et al. (2020);Experiment 2;Orientation
1;3;61;11;14.3090754779971;1.91770874055146;-1;58;3.3090754779971;Fritsche et al. (2020);Experiment 2;Orientation
1;3;62;157;155.1469686587;1.41765699493044;1;34;-1.85303134130015;Fritsche et al. (2020);Experiment 2;Orientation
1;3;63;176;178.178462102066;2.26758884795709;1;-19;2.17846210206551;Fritsche et al. (2020);Experiment 2;Orientation
1;3;64;110;114.801797588557;2.11763735719069;-1;66;4.80179758855679;Fritsche et al. (2020);Experiment 2;Orientation
1;3;65;35;34.1929478587545;1.58430312181372;-1;75;-0.807052141245521;Fritsche et al. (2020);Experiment 2;Orientation
1;3;66;42;49.9511877316192;1.75107065891643;1;-7;7.95118773161925;Fritsche et al. (2020);Experiment 2;Orientation
1;3;67;7;12.8961716998396;1.70095237538044;1;35;5.89617169983956;Fritsche et al. (2020);Experiment 2;Orientation
1;3;68;157;150.999569917457;2.10095771450506;1;30;-6.00043008254312;Fritsche et al. (2020);Experiment 2;Orientation
1;3;69;163;160.22757668839;1.11772000390556;1;-6;-2.77242331161023;Fritsche et al. (2020);Experiment 2;Orientation
1;3;70;30;33.1235271747524;1.0843914367797;-1;-47;3.12352717475243;Fritsche et al. (2020);Experiment 2;Orientation
1;3;71;148;149.257186236523;1.11770866741062;1;62;1.25718623652259;Fritsche et al. (2020);Experiment 2;Orientation
1;3;72;91;90.0252370830012;1.35104484096155;-1;57;-0.974762916998799;Fritsche et al. (2020);Experiment 2;Orientation
1;3;73;18;37.9449706382106;2.15099737395576;1;73;19.9449706382106;Fritsche et al. (2020);Experiment 2;Orientation
1;3;74;28;28.175777952082;2.00101406786052;-1;-10;0.175777952082015;Fritsche et al. (2020);Experiment 2;Orientation
1;3;75;127;125.384243310905;1.31762375339531;-1;81;-1.61575668909485;Fritsche et al. (2020);Experiment 2;Orientation
1;3;76;10;12.2937221320169;1.6676848790521;-1;-63;2.29372213201691;Fritsche et al. (2020);Experiment 2;Orientation
1;3;77;32;22.4647517531842;0.967629915328871;1;-22;-9.5352482468158;Fritsche et al. (2020);Experiment 2;Orientation
1;3;78;169;173.737444634475;1.21777116441808;1;43;4.73744463447491;Fritsche et al. (2020);Experiment 2;Orientation
1;3;79;144;147.566489378095;2.98422581422346;-1;25;3.5664893780955;Fritsche et al. (2020);Experiment 2;Orientation
1;3;80;147;146.821851969738;0.784445303415851;1;-3;-0.178148030262008;Fritsche et al. (2020);Experiment 2;Orientation
1;3;81;111;120.036977670369;1.43432639820094;-1;36;9.03697767036869;Fritsche et al. (2020);Experiment 2;Orientation
1;3;82;66;55.7463496404602;0.834178877474187;1;45;-10.2536503595398;Fritsche et al. (2020);Experiment 2;Orientation
1;3;83;27;33.8366417627538;1.46761876168239;-1;39;6.83664176275375;Fritsche et al. (2020);Experiment 2;Orientation
1;3;84;10;27.6273222860401;2.11760225062244;1;17;17.6273222860401;Fritsche et al. (2020);Experiment 2;Orientation
1;3;85;168;161.635400779582;1.01767542587913;1;22;-6.36459922041848;Fritsche et al. (2020);Experiment 2;Orientation
1;3;86;6;17.9894079659905;1.76758098555001;-1;-18;11.9894079659905;Fritsche et al. (2020);Experiment 2;Orientation
1;3;87;93;91.5954496299541;1.95099744709296;-1;-87;-1.40455037004591;Fritsche et al. (2020);Experiment 2;Orientation
1;3;88;99;112.537552169775;1.61771287288502;1;-6;13.5375521697754;Fritsche et al. (2020);Experiment 2;Orientation
1;3;89;113;114.429560916269;1.33437653477085;1;-14;1.42956091626866;Fritsche et al. (2020);Experiment 2;Orientation
1;3;90;91;102.344264599503;1.10104072690956;-1;22;11.3442645995031;Fritsche et al. (2020);Experiment 2;Orientation
1;3;91;78;74.7620229402443;1.21768778631304;1;13;-3.23797705975575;Fritsche et al. (2020);Experiment 2;Orientation
1;3;92;86;74.4091921186112;1.95107863103476;-1;-8;-11.5908078813888;Fritsche et al. (2020);Experiment 2;Orientation
1;3;93;146;143.999603747777;1.98429749013667;1;-60;-2.00039625222303;Fritsche et al. (2020);Experiment 2;Orientation
1;3;94;179;1.15256142972342;1.58437040940407;1;-33;2.15256142972342;Fritsche et al. (2020);Experiment 2;Orientation
1;3;95;102;108.603123470591;1.06770411452817;1;77;6.6031234705905;Fritsche et al. (2020);Experiment 2;Orientation
1;3;96;37;28.831345186636;0.767654124236287;1;65;-8.16865481336404;Fritsche et al. (2020);Experiment 2;Orientation
1;3;97;22;26.9430426497131;2.08438192874746;-1;15;4.94304264971314;Fritsche et al. (2020);Experiment 2;Orientation
1;3;98;135;142.272445852054;2.36764695664533;-1;67;7.27244585205403;Fritsche et al. (2020);Experiment 2;Orientation
1;3;99;148;147.34250961633;1.6009787418734;-1;-13;-0.657490383670051;Fritsche et al. (2020);Experiment 2;Orientation
1;3;100;57;53.5732624940219;1.38435073509754;-1;-89;-3.42673750597815;Fritsche et al. (2020);Experiment 2;Orientation
1;3;101;99;109.202667704038;1.00104624887899;-1;-42;10.2026677040376;Fritsche et al. (2020);Experiment 2;Orientation
1;4;1;68;59.0205009795336;1.13434588966265;1;31;-8.97949902046642;Fritsche et al. (2020);Experiment 2;Orientation
1;4;2;149;149.705881787632;1.03447903863707;1;-81;0.705881787631569;Fritsche et al. (2020);Experiment 2;Orientation
1;4;3;76;57.4008969187859;1.06775860284688;-1;73;-18.5991030812141;Fritsche et al. (2020);Experiment 2;Orientation
1;4;4;17;32.3986084983552;1.48438068539326;-1;59;15.3986084983552;Fritsche et al. (2020);Experiment 2;Orientation
1;4;5;136;137.864191926179;0.884428810644749;-1;61;1.86419192617922;Fritsche et al. (2020);Experiment 2;Orientation
1;4;6;145;139.017863398637;2.28430652276438;-1;-9;-5.98213660136264;Fritsche et al. (2020);Experiment 2;Orientation
1;4;7;16;22.1746359712317;2.30088742822772;-1;-51;6.17463597123167;Fritsche et al. (2020);Experiment 2;Orientation
1;4;8;15;21.6174308858564;2.35099400957552;1;1;6.61743088585641;Fritsche et al. (2020);Experiment 2;Orientation
1;4;9;134;113.236460764297;1.71761117354617;1;61;-20.7635392357031;Fritsche et al. (2020);Experiment 2;Orientation
1;4;10;170;164.238740007521;2.15091363016109;1;-36;-5.76125999247944;Fritsche et al. (2020);Experiment 2;Orientation
1;4;11;43;61.573475692429;1.71769711149682;-1;-53;18.573475692429;Fritsche et al. (2020);Experiment 2;Orientation
1;4;12;9;17.6403493945839;1.88434799239621;-1;34;8.64034939458391;Fritsche et al. (2020);Experiment 2;Orientation
1;4;13;121;123.931104947651;1.21779310602142;1;68;2.93110494765077;Fritsche et al. (2020);Experiment 2;Orientation
1;4;14;125;121.834275448813;1.11772146667863;1;-4;-3.16572455118731;Fritsche et al. (2020);Experiment 2;Orientation
1;4;15;94;93.0533970102841;0.817808245730703;1;31;-0.946602989715913;Fritsche et al. (2020);Experiment 2;Orientation
1;4;16;146;140.108924735932;1.61759841084495;1;-52;-5.89107526406812;Fritsche et al. (2020);Experiment 2;Orientation
1;4;17;71;66.5114880972198;1.46758767774008;-1;75;-4.48851190278025;Fritsche et al. (2020);Experiment 2;Orientation
1;4;18;81;73.1403987141604;0.901027269392216;1;-10;-7.85960128583959;Fritsche et al. (2020);Experiment 2;Orientation
1;4;19;44;31.4830183988216;1.81768902967087;1;37;-12.5169816011784;Fritsche et al. (2020);Experiment 2;Orientation
1;4;20;83;61.2492941536274;2.00102321019585;-1;-39;-21.7507058463726;Fritsche et al. (2020);Experiment 2;Orientation
1;4;21;130;116.486349549498;1.78433230415249;1;-47;-13.513650450502;Fritsche et al. (2020);Experiment 2;Orientation
1;4;22;43;41.6136048112577;0.901133686176763;-1;87;-1.38639518874228;Fritsche et al. (2020);Experiment 2;Orientation
1;4;23;90;87.3454655224506;1.11772622069475;-1;-47;-2.65453447754945;Fritsche et al. (2020);Experiment 2;Orientation
1;4;24;94;89.4267039487138;1.51769352770134;1;-4;-4.57329605128625;Fritsche et al. (2020);Experiment 2;Orientation
1;4;25;62;70.3901428658662;0.717785243610706;1;32;8.3901428658662;Fritsche et al. (2020);Experiment 2;Orientation
1;4;26;28;32.9485054986664;1.01764653609644;-1;34;4.94850549866642;Fritsche et al. (2020);Experiment 2;Orientation
1;4;27;179;179.702596737733;1.23436962316555;-1;29;0.702596737732961;Fritsche et al. (2020);Experiment 2;Orientation
1;4;28;174;179.317529197229;1.81768427565839;1;5;5.31752919722871;Fritsche et al. (2020);Experiment 2;Orientation
1;4;29;144;138.963821282836;2.31761863368592;1;30;-5.03617871716364;Fritsche et al. (2020);Experiment 2;Orientation
1;4;30;28;31.2046991531866;2.20103739909973;1;-64;3.20469915318662;Fritsche et al. (2020);Experiment 2;Orientation
1;4;31;68;66.902451717094;0.634404217762494;-1;-40;-1.097548282906;Fritsche et al. (2020);Experiment 2;Orientation
1;4;32;176;179.792896023792;1.21774337171519;1;72;3.79289602379185;Fritsche et al. (2020);Experiment 2;Orientation
1;4;33;145;143.282764755777;0.701060620631324;-1;31;-1.71723524422262;Fritsche et al. (2020);Experiment 2;Orientation
1;4;34;130;120.433371539702;2.45094789563518;-1;15;-9.56662846029828;Fritsche et al. (2020);Experiment 2;Orientation
1;4;35;161;155.782748410826;1.46775077700659;1;-31;-5.21725158917423;Fritsche et al. (2020);Experiment 2;Orientation
1;4;36;142;144.891851564061;1.21776129069258;-1;19;2.89185156406063;Fritsche et al. (2020);Experiment 2;Orientation
1;4;37;78;70.1273415412336;1.10110070063456;1;64;-7.87265845876637;Fritsche et al. (2020);Experiment 2;Orientation
1;4;38;31;24.7880044747394;1.38435292926079;1;47;-6.21199552526063;Fritsche et al. (2020);Experiment 2;Orientation
1;4;39;142;23.601512365959;1.86767090956346;1;69;61.601512365959;Fritsche et al. (2020);Experiment 2;Orientation
1;4;40;10;21.7843442418687;1.00101699340667;1;-48;11.7843442418687;Fritsche et al. (2020);Experiment 2;Orientation
1;4;41;23;33.3211471751958;1.70098053377296;-1;-13;10.3211471751958;Fritsche et al. (2020);Experiment 2;Orientation
1;4;42;63;53.1637998300017;0.967698665695934;1;-40;-9.83620016999829;Fritsche et al. (2020);Experiment 2;Orientation
1;4;43;130;125.293252672438;1.36770949021957;-1;-67;-4.70674732756243;Fritsche et al. (2020);Experiment 2;Orientation
1;4;44;61;58.4699454096369;1.65084323417977;1;69;-2.53005459036312;Fritsche et al. (2020);Experiment 2;Orientation
1;4;45;64;65.6399035987448;1.201017651656;1;-3;1.63990359874482;Fritsche et al. (2020);Experiment 2;Orientation
1;4;46;62;63.2314560368882;1.80102950012224;1;2;1.23145603688819;Fritsche et al. (2020);Experiment 2;Orientation
1;4;47;134;142.297331918516;0.701063180487836;-1;-72;8.29733191851636;Fritsche et al. (2020);Experiment 2;Orientation
1;4;48;108;108.909161087632;0.917303552236262;-1;26;0.909161087631787;Fritsche et al. (2020);Experiment 2;Orientation
1;4;49;176;178.049741514658;1.83441840666637;-1;-68;2.04974151465842;Fritsche et al. (2020);Experiment 2;Orientation
1;4;50;137;143.481579702424;0.884459163200518;-1;39;6.48157970242423;Fritsche et al. (2020);Experiment 2;Orientation
1;4;51;135;127.579900211564;1.58439491086392;-1;2;-7.4200997884364;Fritsche et al. (2020);Experiment 2;Orientation
1;4;52;159;141.536352323128;1.40105597632646;1;-24;-17.4636476768718;Fritsche et al. (2020);Experiment 2;Orientation
1;4;53;162;151.568297141608;1.81770219463942;-1;-3;-10.4317028583922;Fritsche et al. (2020);Experiment 2;Orientation
1;4;54;22;20.5349589090278;0.817723039159318;1;-40;-1.46504109097224;Fritsche et al. (2020);Experiment 2;Orientation
1;4;55;122;116.533294304705;1.30095617859479;1;80;-5.46670569529523;Fritsche et al. (2020);Experiment 2;Orientation
1;4;56;54;46.5156753292939;1.31765520303088;-1;68;-7.48432467070607;Fritsche et al. (2020);Experiment 2;Orientation
1;4;57;10;9.71073865649178;1.01771382368679;1;44;-0.289261343508215;Fritsche et al. (2020);Experiment 2;Orientation
1;4;58;72;78.4136462036674;1.58431409261902;-1;-62;6.41364620366737;Fritsche et al. (2020);Experiment 2;Orientation
1;4;59;170;175.691196207329;0.967698300002667;1;82;5.69119620732909;Fritsche et al. (2020);Experiment 2;Orientation
1;4;60;113;109.630542057152;0.884425885098608;1;57;-3.36945794284803;Fritsche et al. (2020);Experiment 2;Orientation
1;4;61;37;55.1286196410643;1.73437492571611;-1;76;18.1286196410643;Fritsche et al. (2020);Experiment 2;Orientation
1;4;62;79;73.3485271388082;1.60100360902652;-1;-42;-5.65147286119178;Fritsche et al. (2020);Experiment 2;Orientation
1;4;63;111;107.89611067768;2.13429140134394;-1;-32;-3.10388932232;Fritsche et al. (2020);Experiment 2;Orientation
1;4;64;39;46.911806820517;2.60093741851961;-1;72;7.91180682051696;Fritsche et al. (2020);Experiment 2;Orientation
1;4;65;178;2.9766426519448;1.88426936831456;-1;41;4.97664265194481;Fritsche et al. (2020);Experiment 2;Orientation
1;4;66;96;104.679750988417;2.63426123163299;1;82;8.67975098841697;Fritsche et al. (2020);Experiment 2;Orientation
1;4;67;61;67.9123263213805;0.967746205838921;-1;35;6.9123263213805;Fritsche et al. (2020);Experiment 2;Orientation
1;4;68;48;53.4347357477006;1.48430864378679;1;13;5.43473574770064;Fritsche et al. (2020);Experiment 2;Orientation
1;4;69;147;135.033790845175;1.36769669094792;1;81;-11.9662091548247;Fritsche et al. (2020);Experiment 2;Orientation
1;4;70;50;50.0427287245621;0.967737794890127;1;-83;0.0427287245621102;Fritsche et al. (2020);Experiment 2;Orientation
1;4;71;32;46.2575644987099;1.85109146687319;-1;18;14.2575644987099;Fritsche et al. (2020);Experiment 2;Orientation
1;4;72;155;135.737213301481;1.91754235004191;1;57;-19.2627866985188;Fritsche et al. (2020);Experiment 2;Orientation
1;4;73;50;52.1532929370878;1.73437529141302;-1;-75;2.15329293708782;Fritsche et al. (2020);Experiment 2;Orientation
1;4;74;5;6.82777236709038;1.85096713111125;1;45;1.82777236709038;Fritsche et al. (2020);Experiment 2;Orientation
1;4;75;105;105.096734227563;1.70094981552757;1;80;0.0967342275629335;Fritsche et al. (2020);Experiment 2;Orientation
1;4;76;123;117.797188749656;1.28433212130403;1;-18;-5.20281125034352;Fritsche et al. (2020);Experiment 2;Orientation
1;4;77;27;21.4279257552774;1.53433111564664;1;-84;-5.5720742447226;Fritsche et al. (2020);Experiment 2;Orientation
1;4;78;125;124.274516117082;1.33431144134011;-1;82;-0.725483882917786;Fritsche et al. (2020);Experiment 2;Orientation
1;4;79;47;52.8206525572476;2.18432959801794;-1;78;5.8206525572476;Fritsche et al. (2020);Experiment 2;Orientation
1;4;80;159;143.226719995425;2.4176774737607;1;68;-15.7732800045749;Fritsche et al. (2020);Experiment 2;Orientation
1;4;81;94;93.9834070637677;1.48443700217831;-1;65;-0.0165929362323425;Fritsche et al. (2020);Experiment 2;Orientation
1;4;82;166;163.394880213824;0.73437163448034;1;-72;-2.60511978617615;Fritsche et al. (2020);Experiment 2;Orientation
1;4;83;152;152.106182631802;1.41768442193643;-1;14;0.106182631802028;Fritsche et al. (2020);Experiment 2;Orientation
1;4;84;29;24.2635368863803;0.601096129466896;1;-57;-4.73646311361968;Fritsche et al. (2020);Experiment 2;Orientation
1;4;85;124;125.656040367422;0.834439251193544;-1;85;1.65604036742168;Fritsche et al. (2020);Experiment 2;Orientation
1;4;86;5;179.041289348308;1.91765022959953;1;-61;-5.95871065169172;Fritsche et al. (2020);Experiment 2;Orientation
1;4;87;43;40.1050820331525;1.70098199654603;1;-38;-2.89491796684751;Fritsche et al. (2020);Experiment 2;Orientation
1;4;88;71;62.2669862512774;1.0011084167636;1;-28;-8.7330137487226;Fritsche et al. (2020);Experiment 2;Orientation
1;4;89;141;142.694115640103;2.15096738709326;-1;-70;1.69411564010275;Fritsche et al. (2020);Experiment 2;Orientation
1;4;90;148;148.859289436021;1.50105703683948;-1;-7;0.859289436021299;Fritsche et al. (2020);Experiment 2;Orientation
1;4;91;143;141.311185737402;1.8176162566815;-1;5;-1.68881426259759;Fritsche et al. (2020);Experiment 2;Orientation
1;4;92;36;32.4608032832734;0.951029993808334;-1;-73;-3.53919671672656;Fritsche et al. (2020);Experiment 2;Orientation
1;4;93;68;58.9991233681039;1.01758802514814;-1;-32;-9.00087663189615;Fritsche et al. (2020);Experiment 2;Orientation
1;4;94;80;74.7326188961442;1.71770771660522;1;-12;-5.26738110385581;Fritsche et al. (2020);Experiment 2;Orientation
1;4;95;163;156.99874028792;1.36769851941426;1;-83;-6.00125971208001;Fritsche et al. (2020);Experiment 2;Orientation
1;4;96;78;71.8253957323605;0.667756554965308;-1;85;-6.17460426763952;Fritsche et al. (2020);Experiment 2;Orientation
1;4;97;50;53.3013978469964;1.75097155600088;-1;28;3.30139784699636;Fritsche et al. (2020);Experiment 2;Orientation
1;4;98;147;142.530397903145;1.83440231615532;-1;83;-4.46960209685523;Fritsche et al. (2020);Experiment 2;Orientation
1;4;99;163;145.92634280494;1.35102948183703;-1;-16;-17.0736571950601;Fritsche et al. (2020);Experiment 2;Orientation
1;4;100;106;109.450279160641;0.951053032495111;-1;57;3.45027916064112;Fritsche et al. (2020);Experiment 2;Orientation
1;4;101;131;123.68937664712;1.88427887634316;1;-25;-7.3106233528803;Fritsche et al. (2020);Experiment 2;Orientation
1;5;1;29;32.9700365886055;1.56767248204414;-1;-78;3.97003658860554;Fritsche et al. (2020);Experiment 2;Orientation
1;5;2;19;29.810771131222;0.884366642760142;1;10;10.810771131222;Fritsche et al. (2020);Experiment 2;Orientation
1;5;3;174;160.155704930452;1.46771164781239;-1;25;-13.8442950695476;Fritsche et al. (2020);Experiment 2;Orientation
1;5;4;40;37.2178866112342;1.75102458154652;-1;-46;-2.78211338876584;Fritsche et al. (2020);Experiment 2;Orientation
1;5;5;143;140.222676508728;0.867752093501622;-1;77;-2.77732349127163;Fritsche et al. (2020);Experiment 2;Orientation
1;5;6;121;114.076118629931;1.5009283127547;-1;22;-6.92388137006941;Fritsche et al. (2020);Experiment 2;Orientation
1;5;7;12;19.9714174110377;1.98429785582994;1;-71;7.97141741103768;Fritsche et al. (2020);Experiment 2;Orientation
1;5;8;131;138.521081112885;1.11768636011038;-1;61;7.52108111288487;Fritsche et al. (2020);Experiment 2;Orientation
1;5;9;113;112.510233642896;2.35110554606945;1;18;-0.489766357104116;Fritsche et al. (2020);Experiment 2;Orientation
1;5;10;130;143.477563718622;1.75100300563645;1;-17;13.4775637186217;Fritsche et al. (2020);Experiment 2;Orientation
1;5;11;118;123.390027673255;1.63441518856416;-1;12;5.39002767325528;Fritsche et al. (2020);Experiment 2;Orientation
1;5;12;134;135.77706672682;0.917752258064866;-1;-16;1.77706672681995;Fritsche et al. (2020);Experiment 2;Orientation
1;5;13;35;49.2127133249498;3.11770171923126;-1;-81;14.2127133249498;Fritsche et al. (2020);Experiment 2;Orientation
1;5;14;172;169.273579930324;1.66760406080721;-1;43;-2.72642006967624;Fritsche et al. (2020);Experiment 2;Orientation
1;5;15;28;36.7928773368861;1.66774009875735;-1;-36;8.79287733688611;Fritsche et al. (2020);Experiment 2;Orientation
1;5;16;4;5.59520713078595;1.83437452345606;1;24;1.59520713078595;Fritsche et al. (2020);Experiment 2;Orientation
1;5;17;86;67.7186714965492;2.15101602431969;1;-82;-18.2813285034508;Fritsche et al. (2020);Experiment 2;Orientation
1;5;18;89;80.2660214373015;2.08434097108693;-1;-3;-8.73397856269854;Fritsche et al. (2020);Experiment 2;Orientation
1;5;19;7;14.90303989066;1.25092895271519;-1;82;7.90303989066001;Fritsche et al. (2020);Experiment 2;Orientation
1;5;20;11;23.2511080231757;1.66764794401752;1;-4;12.2511080231757;Fritsche et al. (2020);Experiment 2;Orientation
1;5;21;30;36.2613970361875;1.4844121350252;1;-19;6.26139703618753;Fritsche et al. (2020);Experiment 2;Orientation
1;5;22;79;65.9000504167727;1.63437788783631;1;-49;-13.0999495832273;Fritsche et al. (2020);Experiment 2;Orientation
1;5;23;151;152.606469713813;0.700961883409036;1;-72;1.60646971381323;Fritsche et al. (2020);Experiment 2;Orientation
1;5;24;54;50.2991226389339;2.10094454954015;1;-83;-3.70087736106608;Fritsche et al. (2020);Experiment 2;Orientation
1;5;25;14;21.3268829924518;1.81777789317493;1;40;7.32688299245179;Fritsche et al. (2020);Experiment 2;Orientation
1;5;26;120;116.273669468619;2.35098669570652;-1;74;-3.72633053138081;Fritsche et al. (2020);Experiment 2;Orientation
1;5;27;150;146.269480330718;2.01765055872602;-1;-30;-3.73051966928188;Fritsche et al. (2020);Experiment 2;Orientation
1;5;28;111;123.156090105942;1.90087660370045;-1;39;12.1560901059422;Fritsche et al. (2020);Experiment 2;Orientation
1;5;29;173;166.202113032143;2.03429546054031;1;-62;-6.79788696785667;Fritsche et al. (2020);Experiment 2;Orientation
1;5;30;170;172.3111099247;2.434315061706;1;3;2.31110992470008;Fritsche et al. (2020);Experiment 2;Orientation
1;5;31;132;137.515477815791;0.96776887883243;-1;38;5.51547781579069;Fritsche et al. (2020);Experiment 2;Orientation
1;5;32;87;82.7826794731198;2.41762042558548;1;45;-4.21732052688016;Fritsche et al. (2020);Experiment 2;Orientation
1;5;33;82;82.4069007819251;2.25093480381111;1;5;0.406900781925145;Fritsche et al. (2020);Experiment 2;Orientation
1;5;34;78;76.3913622635294;1.28433285269057;-1;4;-1.60863773647057;Fritsche et al. (2020);Experiment 2;Orientation
1;5;35;166;162.653790856382;1.25102878701728;-1;-88;-3.34620914361753;Fritsche et al. (2020);Experiment 2;Orientation
1;5;36;156;155.76672562933;2.33432497199829;1;10;-0.233274370670188;Fritsche et al. (2020);Experiment 2;Orientation
1;5;37;124;120.545481399354;2.51762843427059;-1;32;-3.45451860064574;Fritsche et al. (2020);Experiment 2;Orientation
1;5;38;7;12.8132523474903;1.95151051496578;1;-63;5.81325234749033;Fritsche et al. (2020);Experiment 2;Orientation
1;5;39;6;15.4550683774409;2.01765604412503;1;1;9.45506837744091;Fritsche et al. (2020);Experiment 2;Orientation
1;5;40;42;42.91968760171;1.05104129373285;1;-36;0.919687601709988;Fritsche et al. (2020);Experiment 2;Orientation
1;5;41;95;96.0916646961695;0.651106167748367;1;-53;1.09166469616946;Fritsche et al. (2020);Experiment 2;Orientation
1;5;42;139;135.679380892467;1.00106453354965;-1;-44;-3.32061910753299;Fritsche et al. (2020);Experiment 2;Orientation
1;5;43;141;140.814879672988;1.15107234110837;-1;-2;-0.185120327011674;Fritsche et al. (2020);Experiment 2;Orientation
1;5;44;161;152.242929758447;1.13444206702843;-1;-20;-8.75707024155344;Fritsche et al. (2020);Experiment 2;Orientation
1;5;45;164;142.221010441118;1.76764863883363;1;-3;-21.7789895588822;Fritsche et al. (2020);Experiment 2;Orientation
1;5;46;29;40.6354535755632;1.18442175276141;-1;-45;11.6354535755632;Fritsche et al. (2020);Experiment 2;Orientation
1;5;47;37;45.9357740355197;1.13441756556858;1;-8;8.93577403551971;Fritsche et al. (2020);Experiment 2;Orientation
1;5;48;37;51.8861316155308;2.05089757622045;1;0;14.8861316155308;Fritsche et al. (2020);Experiment 2;Orientation
1;5;49;101;107.223847727242;2.05101057548745;1;-64;6.22384772724214;Fritsche et al. (2020);Experiment 2;Orientation
1;5;50;130;117.514724796882;1.46767580985761;1;-29;-12.4852752031176;Fritsche et al. (2020);Experiment 2;Orientation
1;5;51;63;55.7190746793698;0.917729950764624;1;67;-7.28092532063025;Fritsche et al. (2020);Experiment 2;Orientation
1;5;52;140;141.964933599856;1.53430112878777;-1;-77;1.96493359985584;Fritsche et al. (2020);Experiment 2;Orientation
1;5;53;166;158.989899529048;1.41760982047708;-1;-26;-7.01010047095212;Fritsche et al. (2020);Experiment 2;Orientation
1;5;54;113;121.497526720869;1.8510044318391;1;53;8.49752672086882;Fritsche et al. (2020);Experiment 2;Orientation
1;5;55;83;75.4063214858803;1.56779498934338;1;30;-7.59367851411966;Fritsche et al. (2020);Experiment 2;Orientation
1;5;56;151;155.254906266437;3.0175935105508;1;-68;4.25490626643744;Fritsche et al. (2020);Experiment 2;Orientation
1;5;57;145;150.684324581757;0.801112878223648;-1;6;5.68432458175678;Fritsche et al. (2020);Experiment 2;Orientation
1;5;58;166;147.714270819158;1.75099203483114;1;-21;-18.2857291808424;Fritsche et al. (2020);Experiment 2;Orientation
1;5;59;38;27.9537202774793;1.20100046406515;-1;-52;-10.0462797225207;Fritsche et al. (2020);Experiment 2;Orientation
1;5;60;143;134.975282306992;1.65104875387988;-1;75;-8.02471769300831;Fritsche et al. (2020);Experiment 2;Orientation
1;5;61;33;38.0718369944792;1.16769493562242;1;-70;5.07183699447923;Fritsche et al. (2020);Experiment 2;Orientation
1;5;62;146;145.248864897417;2.0510244718389;-1;67;-0.751135102582623;Fritsche et al. (2020);Experiment 2;Orientation
1;5;63;159;146.909137798561;1.95101353760765;-1;-13;-12.0908622014393;Fritsche et al. (2020);Experiment 2;Orientation
1;5;64;160;156.732750230177;1.33436483257901;-1;-1;-3.26724976982325;Fritsche et al. (2020);Experiment 2;Orientation
1;5;65;139;135.832584588258;2.31761497675325;-1;21;-3.16741541174187;Fritsche et al. (2020);Experiment 2;Orientation
1;5;66;30;34.0168502841663;1.01770614412453;-1;-71;4.0168502841663;Fritsche et al. (2020);Experiment 2;Orientation
1;5;67;6;17.7749665363367;0.917749698211992;-1;24;11.7749665363367;Fritsche et al. (2020);Experiment 2;Orientation
1;5;68;79;81.8649256917274;1.00103052406484;1;-73;2.86492569172736;Fritsche et al. (2020);Experiment 2;Orientation
1;5;69;159;168.919384118327;1.13431955973647;-1;-80;9.91938411832655;Fritsche et al. (2020);Experiment 2;Orientation
1;5;70;15;19.8875054466047;2.91763121354234;1;-36;4.88750544660466;Fritsche et al. (2020);Experiment 2;Orientation
1;5;71;107;108.005396811121;0.967681478105078;-1;88;1.00539681112079;Fritsche et al. (2020);Experiment 2;Orientation
1;5;72;108;113.949006431968;1.11773280317357;1;-1;5.94900643196834;Fritsche et al. (2020);Experiment 2;Orientation
1;5;73;5;22.1900210171377;0.984416340499592;-1;-77;17.1900210171377;Fritsche et al. (2020);Experiment 2;Orientation
1;5;74;109;113.8344654207;0.667689633064583;1;76;4.83446542070013;Fritsche et al. (2020);Experiment 2;Orientation
1;5;75;87;98.0296919353828;1.95096453468432;1;22;11.0296919353828;Fritsche et al. (2020);Experiment 2;Orientation
1;5;76;159;144.568005210528;2.10094308676707;-1;-72;-14.4319947894723;Fritsche et al. (2020);Experiment 2;Orientation
1;5;77;17;22.6831960790603;0.901025806619145;-1;-38;5.68319607906028;Fritsche et al. (2020);Experiment 2;Orientation
1;5;78;133;135.206189445237;2.03430716272851;-1;64;2.20618944523676;Fritsche et al. (2020);Experiment 2;Orientation
1;5;79;40;28.1221029809415;2.21767681551137;-1;-87;-11.8778970190585;Fritsche et al. (2020);Experiment 2;Orientation
1;5;80;93;86.2465528499499;1.93432548396959;-1;-53;-6.75344715005009;Fritsche et al. (2020);Experiment 2;Orientation
1;5;81;88;87.0160098076174;1.68435172246973;1;5;-0.983990192382606;Fritsche et al. (2020);Experiment 2;Orientation
1;5;82;77;71.2103041030082;1.83435148476929;1;11;-5.7896958969918;Fritsche et al. (2020);Experiment 2;Orientation
1;5;83;151;161.672851973268;0.767738965110766;1;-74;10.6728519732679;Fritsche et al. (2020);Experiment 2;Orientation
1;5;84;22;27.2431846312145;1.43442513542323;-1;-51;5.2431846312145;Fritsche et al. (2020);Experiment 2;Orientation
1;5;85;175;163.402724991877;0.80113079720104;1;27;-11.5972750081234;Fritsche et al. (2020);Experiment 2;Orientation
1;5;86;88;82.7985025469982;1.08424918203673;-1;87;-5.20149745300185;Fritsche et al. (2020);Experiment 2;Orientation
1;5;87;72;71.7878341230814;1.60107382216665;1;16;-0.212165876918647;Fritsche et al. (2020);Experiment 2;Orientation
1;5;88;132;135.767095009617;0.851044292419829;-1;-60;3.7670950096169;Fritsche et al. (2020);Experiment 2;Orientation
1;5;89;68;62.4810810138458;0.867614592778409;1;64;-5.51891898615421;Fritsche et al. (2020);Experiment 2;Orientation
1;5;90;144;139.823765693364;1.26768941364935;1;-76;-4.17623430663551;Fritsche et al. (2020);Experiment 2;Orientation
1;5;91;3;0.0271581805865679;2.18426450459083;1;-39;-2.97284181941343;Fritsche et al. (2020);Experiment 2;Orientation
1;5;92;71;58.6434082451724;1.2677545070801;-1;-68;-12.3565917548276;Fritsche et al. (2020);Experiment 2;Orientation
1;5;93;175;176.423009146126;1.31764971762823;1;76;1.42300914612628;Fritsche et al. (2020);Experiment 2;Orientation
1;5;94;153;153.55416105257;2.10095990866103;1;22;0.554161052570151;Fritsche et al. (2020);Experiment 2;Orientation
1;5;95;156;148.74390541104;1.90092706939686;1;-3;-7.25609458896028;Fritsche et al. (2020);Experiment 2;Orientation
1;5;96;110;119.585512753018;0.934405205134681;-1;46;9.58551275301781;Fritsche et al. (2020);Experiment 2;Orientation
1;5;97;81;73.3410200886287;1.95094807848363;1;29;-7.65897991137135;Fritsche et al. (2020);Experiment 2;Orientation
1;5;98;87;90.2616640885192;0.784450788818503;-1;-6;3.26166408851915;Fritsche et al. (2020);Experiment 2;Orientation
1;5;99;107;107.65850547657;1.51784090215006;-1;-20;0.658505476569658;Fritsche et al. (2020);Experiment 2;Orientation
1;5;100;11;16.6113793896202;1.30110757566945;1;-84;5.6113793896202;Fritsche et al. (2020);Experiment 2;Orientation
1;5;101;158;149.839270399019;1.36765573328739;-1;33;-8.16072960098063;Fritsche et al. (2020);Experiment 2;Orientation
1;6;1;48;52.7062602521718;1.93447212703177;1;-70;4.70626025217179;Fritsche et al. (2020);Experiment 2;Orientation
1;6;2;169;159.167803560218;1.91762609383659;1;59;-9.83219643978236;Fritsche et al. (2020);Experiment 2;Orientation
1;6;3;82;77.8105211670972;0.617767361203732;1;87;-4.18947883290276;Fritsche et al. (2020);Experiment 2;Orientation
1;6;4;8;16.8348036933121;2.45092887957799;-1;74;8.83480369331213;Fritsche et al. (2020);Experiment 2;Orientation
1;6;5;18;21.2461211088669;1.95094551862712;1;-10;3.24612110886687;Fritsche et al. (2020);Experiment 2;Orientation
1;6;6;27;31.9654711773249;2.51768621383599;1;-9;4.96547117732491;Fritsche et al. (2020);Experiment 2;Orientation
1;6;7;78;71.1120439294751;1.55103306563615;-1;-51;-6.88795607052485;Fritsche et al. (2020);Experiment 2;Orientation
1;6;8;136;129.916558042517;1.80106460669049;1;-58;-6.08344195748265;Fritsche et al. (2020);Experiment 2;Orientation
1;6;9;88;83.5563397053594;1.86761459277477;-1;48;-4.44366029464064;Fritsche et al. (2020);Experiment 2;Orientation
1;6;10;75;77.2455661020489;1.90098009493886;1;13;2.24556610204885;Fritsche et al. (2020);Experiment 2;Orientation
1;6;11;30;42.762476156639;1.81762393624376;-1;45;12.762476156639;Fritsche et al. (2020);Experiment 2;Orientation
1;6;12;24;23.7914264090295;0.601011654285685;1;6;-0.208573590970516;Fritsche et al. (2020);Experiment 2;Orientation
1;6;13;164;156.175242173761;1.70097980238643;1;40;-7.82475782623936;Fritsche et al. (2020);Experiment 2;Orientation
1;6;14;171;164.229880910703;1.73431202644861;-1;-7;-6.77011908929697;Fritsche et al. (2020);Experiment 2;Orientation
1;6;15;56;55.9202999284937;1.66768597613554;-1;-65;-0.0797000715062595;Fritsche et al. (2020);Experiment 2;Orientation
1;6;16;28;36.3741451857739;0.934333163531846;-1;28;8.3741451857739;Fritsche et al. (2020);Experiment 2;Orientation
1;6;17;94;106.938726817135;1.60098093603665;-1;-66;12.938726817135;Fritsche et al. (2020);Experiment 2;Orientation
1;6;18;82;77.2391152907295;2.55100125030731;-1;12;-4.76088470927047;Fritsche et al. (2020);Experiment 2;Orientation
1;6;19;89;86.9147881405535;0.767731285548507;1;-7;-2.08521185944655;Fritsche et al. (2020);Experiment 2;Orientation
1;6;20;25;24.9534086762804;2.38419970371615;-1;64;-0.0465913237195821;Fritsche et al. (2020);Experiment 2;Orientation
1;6;21;24;21.9979734303995;0.801080697201542;-1;1;-2.00202656960053;Fritsche et al. (2020);Experiment 2;Orientation
1;6;22;139;136.567778569209;0.817707314341533;-1;65;-2.432221430791;Fritsche et al. (2020);Experiment 2;Orientation
1;6;23;18;17.9223126731357;0.767825268758315;-1;-59;-0.0776873268643357;Fritsche et al. (2020);Experiment 2;Orientation
1;6;24;23;20.7597987086023;2.53423493827722;1;-5;-2.24020129139768;Fritsche et al. (2020);Experiment 2;Orientation
1;6;25;95;92.3263139941969;3.01763446821496;-1;-72;-2.67368600580309;Fritsche et al. (2020);Experiment 2;Orientation
1;6;26;38;40.3330961165783;2.11762382653615;-1;57;2.33309611657835;Fritsche et al. (2020);Experiment 2;Orientation
1;6;27;38;29.790279321566;1.65103083490249;1;0;-8.20972067843397;Fritsche et al. (2020);Experiment 2;Orientation
1;6;28;56;56.3067758943741;1.18442687247079;1;-18;0.306775894374148;Fritsche et al. (2020);Experiment 2;Orientation
1;6;29;124;122.616597089031;1.76773091985524;1;-68;-1.38340291096904;Fritsche et al. (2020);Experiment 2;Orientation
1;6;30;131;132.201159325534;2.51760832113359;-1;-7;1.20115932553375;Fritsche et al. (2020);Experiment 2;Orientation
1;6;31;57;64.0123948023357;1.33441785812829;1;74;7.01239480233572;Fritsche et al. (2020);Experiment 2;Orientation
1;6;32;13;7.79911299148428;1.03446587367216;1;44;-5.20088700851572;Fritsche et al. (2020);Experiment 2;Orientation
1;6;33;60;57.1625124635782;1.78431621363779;1;-47;-2.83748753642178;Fritsche et al. (2020);Experiment 2;Orientation
1;6;34;166;168.124263656339;1.65098475753257;1;74;2.12426365633942;Fritsche et al. (2020);Experiment 2;Orientation
1;6;35;20;44.6802000185858;3.43425508798464;-1;-34;24.6802000185858;Fritsche et al. (2020);Experiment 2;Orientation
1;6;36;2;179.466856571554;1.01765896967481;-1;18;-2.53314342844573;Fritsche et al. (2020);Experiment 2;Orientation
1;6;37;138;138.913914606559;0.951108983586892;-1;44;0.913914606558649;Fritsche et al. (2020);Experiment 2;Orientation
1;6;38;8;5.10032077001101;2.2343246428718;-1;-50;-2.89967922998899;Fritsche et al. (2020);Experiment 2;Orientation
1;6;39;73;77.3883312229426;3.03435872549744;1;-65;4.38833122294263;Fritsche et al. (2020);Experiment 2;Orientation
1;6;40;9;8.78823241207023;2.85090020921416;1;64;-0.211767587929771;Fritsche et al. (2020);Experiment 2;Orientation
1;6;41;56;60.6729190462468;0.617783817408053;1;-47;4.67291904624679;Fritsche et al. (2020);Experiment 2;Orientation
1;6;42;19;25.2442503599076;2.05090635286251;1;37;6.24425035990762;Fritsche et al. (2020);Experiment 2;Orientation
1;6;43;92;90.1910006932589;0.9177211741262;-1;-73;-1.80899930674113;Fritsche et al. (2020);Experiment 2;Orientation
1;6;44;161;147.610667985403;1.80106058406454;1;-69;-13.3893320145969;Fritsche et al. (2020);Experiment 2;Orientation
1;6;45;108;133.234598503501;1.70114838705558;-1;53;25.2345985035015;Fritsche et al. (2020);Experiment 2;Orientation
1;6;46;174;169.862580948488;2.45100896643635;-1;-66;-4.13741905151198;Fritsche et al. (2020);Experiment 2;Orientation
1;6;47;67;54.1707025748349;1.06769424080267;1;-73;-12.8292974251651;Fritsche et al. (2020);Experiment 2;Orientation
1;6;48;103;103.716560456347;1.35103606431949;-1;-36;0.716560456347082;Fritsche et al. (2020);Experiment 2;Orientation
1;6;49;103;111.36987166041;1.41765882339678;1;0;8.36987166041004;Fritsche et al. (2020);Experiment 2;Orientation
1;6;50;30;33.2673737219691;0.734391381920432;1;73;3.26737372196914;Fritsche et al. (2020);Experiment 2;Orientation
1;6;51;59;56.9094450441802;1.58432140648802;1;-29;-2.0905549558198;Fritsche et al. (2020);Experiment 2;Orientation
1;6;52;139;144.029133813683;1.7509902063648;-1;-80;5.02913381368279;Fritsche et al. (2020);Experiment 2;Orientation
1;6;53;171;167.507863235893;2.06778346999999;-1;-32;-3.49213676410722;Fritsche et al. (2020);Experiment 2;Orientation
1;6;54;31;28.7493472997874;2.78425258298375;1;-40;-2.25065270021264;Fritsche et al. (2020);Experiment 2;Orientation
1;6;55;64;71.7655531399739;1.38430868035357;-1;-33;7.76555313997389;Fritsche et al. (2020);Experiment 2;Orientation
1;6;56;156;140.810631844276;2.25093919213032;1;88;-15.1893681557238;Fritsche et al. (2020);Experiment 2;Orientation
1;6;57;91;85.4801339885088;1.98430187845588;-1;65;-5.51986601149117;Fritsche et al. (2020);Experiment 2;Orientation
1;6;58;88;83.1894039106503;2.15093337760482;1;3;-4.81059608934974;Fritsche et al. (2020);Experiment 2;Orientation
1;6;59;55;58.0980152196957;2.21762927536838;1;33;3.09801521969568;Fritsche et al. (2020);Experiment 2;Orientation
1;6;60;82;83.9859050244662;1.90096181027184;-1;-27;1.98590502446616;Fritsche et al. (2020);Experiment 2;Orientation
1;6;61;92;89.3829775662228;0.817731450108113;-1;-10;-2.61702243377721;Fritsche et al. (2020);Experiment 2;Orientation
1;6;62;180;2.45504634295546;1.81768025302881;-1;-88;2.45504634295546;Fritsche et al. (2020);Experiment 2;Orientation
1;6;63;107;99.2101709800816;1.63433693017214;-1;73;-7.78982901991839;Fritsche et al. (2020);Experiment 2;Orientation
1;6;64;64;44.0764852791774;2.25089384615057;-1;43;-19.9235147208226;Fritsche et al. (2020);Experiment 2;Orientation
1;6;65;44;34.0258351498603;1.31769323514527;1;20;-9.97416485013973;Fritsche et al. (2020);Experiment 2;Orientation
1;6;66;158;145.613696739473;2.35091465410369;-1;66;-12.386303260527;Fritsche et al. (2020);Experiment 2;Orientation
1;6;67;90;88.7881552293431;1.56763774116916;1;68;-1.21184477065692;Fritsche et al. (2020);Experiment 2;Orientation
1;6;68;93;93.6875128077991;2.55087142913908;1;-3;0.687512807799123;Fritsche et al. (2020);Experiment 2;Orientation
1;6;69;30;37.377545272261;1.33433886834609;-1;63;7.37754527226102;Fritsche et al. (2020);Experiment 2;Orientation
1;6;70;69;57.6361350689416;2.33434106250934;-1;-39;-11.3638649310584;Fritsche et al. (2020);Experiment 2;Orientation
1;6;71;174;174.434155679085;1.93429476572055;1;75;0.434155679084881;Fritsche et al. (2020);Experiment 2;Orientation
1;6;72;156;143.19388480142;2.33424854206896;1;18;-12.8061151985803;Fritsche et al. (2020);Experiment 2;Orientation
1;6;73;37;36.6619274923172;1.10107400501147;-1;-61;-0.338072507682817;Fritsche et al. (2020);Experiment 2;Orientation
1;6;74;130;134.719960976523;2.43433005513725;-1;87;4.71996097652334;Fritsche et al. (2020);Experiment 2;Orientation
1;6;75;40;46.1221469803799;1.31760729719463;-1;90;6.12214698037985;Fritsche et al. (2020);Experiment 2;Orientation
1;6;76;32;31.5975903985757;1.6509938998679;1;8;-0.402409601424303;Fritsche et al. (2020);Experiment 2;Orientation
1;6;77;135;137.860869271447;2.05102300906583;-1;77;2.86086927144726;Fritsche et al. (2020);Experiment 2;Orientation
1;6;78;175;178.297164227907;1.95101792592686;-1;-40;3.2971642279071;Fritsche et al. (2020);Experiment 2;Orientation
1;6;79;79;75.7483893990548;1.61767410938046;-1;-84;-3.2516106009452;Fritsche et al. (2020);Experiment 2;Orientation
1;6;80;153;136.457412167513;1.95104608431939;1;-74;-16.5425878324867;Fritsche et al. (2020);Experiment 2;Orientation
1;6;81;37;38.9930708168721;2.03434848608595;-1;-64;1.99307081687208;Fritsche et al. (2020);Experiment 2;Orientation
1;6;82;98;103.450976739135;1.30103407128991;-1;-61;5.45097673913493;Fritsche et al. (2020);Experiment 2;Orientation
1;6;83;104;109.642718795685;2.11771195865003;1;-6;5.6427187956849;Fritsche et al. (2020);Experiment 2;Orientation
1;6;84;24;23.0102754053924;1.33437616907759;1;80;-0.989724594607566;Fritsche et al. (2020);Experiment 2;Orientation
1;6;85;50;60.4811597524451;2.23419116477453;1;-26;10.4811597524451;Fritsche et al. (2020);Experiment 2;Orientation
1;6;86;54;57.4820338411239;1.60084672654921;-1;-4;3.4820338411239;Fritsche et al. (2020);Experiment 2;Orientation
1;6;87;87;82.2821275523375;2.16764520131619;-1;-33;-4.71787244766249;Fritsche et al. (2020);Experiment 2;Orientation
1;6;88;145;140.060348204258;1.73432263155701;1;-58;-4.93965179574249;Fritsche et al. (2020);Experiment 2;Orientation
1;6;89;90;91.051111521934;2.61758305172043;1;55;1.05111152193396;Fritsche et al. (2020);Experiment 2;Orientation
1;6;90;16;3.75184213502645;1.58439271670068;1;74;-12.2481578649735;Fritsche et al. (2020);Experiment 2;Orientation
1;6;91;15;7.40014688977853;2.51758125982087;1;1;-7.59985311022147;Fritsche et al. (2020);Experiment 2;Orientation
1;6;92;106;98.0895835003129;2.98421813466121;1;89;-7.91041649968706;Fritsche et al. (2020);Experiment 2;Orientation
1;6;93;26;23.6163201501929;1.55104696198396;1;80;-2.38367984980705;Fritsche et al. (2020);Experiment 2;Orientation
1;6;94;12;19.9221870619964;1.08435998714049;-1;14;7.92218706199642;Fritsche et al. (2020);Experiment 2;Orientation
1;6;95;34;28.8080483582403;1.10105864589059;-1;-22;-5.19195164175971;Fritsche et al. (2020);Experiment 2;Orientation
1;6;96;143;130.855104049929;1.76762011474784;1;71;-12.1448959500705;Fritsche et al. (2020);Experiment 2;Orientation
1;6;97;5;9.45806046708282;1.05101167257089;-1;-42;4.45806046708282;Fritsche et al. (2020);Experiment 2;Orientation
1;6;98;161;151.72435345776;1.0677154510231;1;24;-9.27564654224039;Fritsche et al. (2020);Experiment 2;Orientation
1;6;99;2;1.31229955736836;1.45098409928323;-1;-21;-0.687700442631638;Fritsche et al. (2020);Experiment 2;Orientation
1;6;100;42;47.4179259725676;1.25107486439083;1;-40;5.41792597256764;Fritsche et al. (2020);Experiment 2;Orientation
1;6;101;140;134.557705230665;0.834365746814001;1;82;-5.44229476933504;Fritsche et al. (2020);Experiment 2;Orientation
1;7;1;168;172.752050948972;2.43427812666778;-1;-28;4.75205094897234;Fritsche et al. (2020);Experiment 2;Orientation
1;7;2;37;42.5916576543851;1.88429862378689;-1;-49;5.59165765438514;Fritsche et al. (2020);Experiment 2;Orientation
1;7;3;115;117.83272527593;0.9510804595011;1;-78;2.83272527592968;Fritsche et al. (2020);Experiment 2;Orientation
1;7;4;64;62.8944513744565;2.10089262107431;1;51;-1.10554862554352;Fritsche et al. (2020);Experiment 2;Orientation
1;7;5;20;35.1400638623023;1.71760422536681;1;44;15.1400638623023;Fritsche et al. (2020);Experiment 2;Orientation
1;7;6;140;138.126464950305;0.934469567175256;-1;60;-1.87353504969545;Fritsche et al. (2020);Experiment 2;Orientation
1;7;7;125;134.335413856905;1.91760378653635;1;15;9.33541385690458;Fritsche et al. (2020);Experiment 2;Orientation
1;7;8;71;70.3597280007933;0.934308296375093;-1;54;-0.640271999206746;Fritsche et al. (2020);Experiment 2;Orientation
1;7;9;61;61.5468950542345;2.06769350941977;-1;10;0.546895054234511;Fritsche et al. (2020);Experiment 2;Orientation
1;7;10;38;34.9029809401308;1.28432919575425;1;23;-3.09701905986917;Fritsche et al. (2020);Experiment 2;Orientation
1;7;11;89;90.4900294021524;0.617741031273908;1;-51;1.49002940215237;Fritsche et al. (2020);Experiment 2;Orientation
1;7;12;163;152.474277851695;1.31780696580245;1;-74;-10.5257221483049;Fritsche et al. (2020);Experiment 2;Orientation
1;7;13;108;111.963489388104;1.38434963801774;-1;55;3.96348938810428;Fritsche et al. (2020);Experiment 2;Orientation
1;7;14;124;121.630806111886;2.10099867216559;1;-16;-2.36919388811404;Fritsche et al. (2020);Experiment 2;Orientation
1;7;15;7;9.57805883809756;1.90108943727319;1;-63;2.57805883809756;Fritsche et al. (2020);Experiment 2;Orientation
1;7;16;76;69.9161275907908;1.53442692732642;1;-69;-6.08387240920919;Fritsche et al. (2020);Experiment 2;Orientation
1;7;17;95;102.713503705662;1.75107321877294;-1;-19;7.71350370566221;Fritsche et al. (2020);Experiment 2;Orientation
1;7;18;65;59.319116122646;0.85113900701981;-1;30;-5.68088387735403;Fritsche et al. (2020);Experiment 2;Orientation
1;7;19;169;170.330364200939;0.850917396805016;-1;76;1.33036420093865;Fritsche et al. (2020);Experiment 2;Orientation
1;7;20;126;128.389543931425;1.1677219969315;-1;43;2.38954393142544;Fritsche et al. (2020);Experiment 2;Orientation
1;7;21;145;153.37599901621;2.60091218566959;1;-19;8.3759990162105;Fritsche et al. (2020);Experiment 2;Orientation
1;7;22;157;148.896235588138;1.23438534798333;1;-12;-8.10376441186185;Fritsche et al. (2020);Experiment 2;Orientation
1;7;23;19;27.0627642646575;1.23392347718618;1;-42;8.06276426465754;Fritsche et al. (2020);Experiment 2;Orientation
1;7;24;75;67.3825633110982;1.40105451355339;-1;-56;-7.61743668890183;Fritsche et al. (2020);Experiment 2;Orientation
1;7;25;68;58.4802393315726;1.06772020503922;1;7;-9.51976066842737;Fritsche et al. (2020);Experiment 2;Orientation
1;7;26;135;135.746301415962;0.951126902567921;1;-67;0.746301415962307;Fritsche et al. (2020);Experiment 2;Orientation
1;7;27;93;87.0128428642855;1.56763444992976;-1;42;-5.98715713571454;Fritsche et al. (2020);Experiment 2;Orientation
1;7;28;23;31.4162864359758;1.66767939365309;1;70;8.41628643597576;Fritsche et al. (2020);Experiment 2;Orientation
1;7;29;68;61.5366627934294;1.41757690806844;1;-45;-6.4633372065706;Fritsche et al. (2020);Experiment 2;Orientation
1;7;30;148;153.541023881014;2.16779952394063;1;-80;5.54102388101393;Fritsche et al. (2020);Experiment 2;Orientation
1;7;31;139;143.997157883355;2.08427039225353;-1;9;4.99715788335538;Fritsche et al. (2020);Experiment 2;Orientation
1;7;32;44;46.9833079738071;1.61763863711894;1;-85;2.98330797380713;Fritsche et al. (2020);Experiment 2;Orientation
1;7;33;155;147.829672473215;1.33435715302039;-1;69;-7.17032752678512;Fritsche et al. (2020);Experiment 2;Orientation
1;7;34;5;8.31289768435674;1.96764783430626;-1;-30;3.31289768435674;Fritsche et al. (2020);Experiment 2;Orientation
1;7;35;172;172.047376290546;1.3179667738259;1;13;0.0473762905459125;Fritsche et al. (2020);Experiment 2;Orientation
1;7;36;32;43.1124934140889;1.8342761519234;1;-40;11.1124934140889;Fritsche et al. (2020);Experiment 2;Orientation
1;7;37;28;28.544067409343;1.3177217592347;-1;4;0.544067409343029;Fritsche et al. (2020);Experiment 2;Orientation
1;7;38;152;145.904397578845;1.5676377411728;1;56;-6.09560242115521;Fritsche et al. (2020);Experiment 2;Orientation
1;7;39;98;98.3907478656867;2.03423768097855;1;54;0.390747865686734;Fritsche et al. (2020);Experiment 2;Orientation
1;7;40;145;147.56203767292;1.93430207958954;1;-47;2.56203767292007;Fritsche et al. (2020);Experiment 2;Orientation
1;7;41;42;132.984110635667;4.26747255745067;-1;-77;-89.0158893643333;Fritsche et al. (2020);Experiment 2;Orientation
1;7;42;176;174.606747252841;2.21763549215393;1;46;-1.39325274715932;Fritsche et al. (2020);Experiment 2;Orientation
1;7;43;83;74.6822434402626;1.73402605419324;-1;-87;-8.31775655973739;Fritsche et al. (2020);Experiment 2;Orientation
1;7;44;28;31.3654648715209;0.601125019245956;-1;55;3.36546487152095;Fritsche et al. (2020);Experiment 2;Orientation
1;7;45;4;2.92001599740875;1.90102361245954;-1;24;-1.07998400259125;Fritsche et al. (2020);Experiment 2;Orientation
1;7;46;103;111.075208686882;2.8343134526549;-1;81;8.07520868688242;Fritsche et al. (2020);Experiment 2;Orientation
1;7;47;103;106.738106505983;0.967783140873507;-1;0;3.7381065059831;Fritsche et al. (2020);Experiment 2;Orientation
1;7;48;96;99.4703730251006;1.05105445869776;-1;7;3.47037302510061;Fritsche et al. (2020);Experiment 2;Orientation
1;7;49;33;32.5780827999173;2.23430745528094;-1;63;-0.421917200082689;Fritsche et al. (2020);Experiment 2;Orientation
1;7;50;113;106.173061861896;1.23442301440082;-1;-80;-6.8269381381045;Fritsche et al. (2020);Experiment 2;Orientation
1;7;51;161;150.737633441046;1.13437514513134;1;-48;-10.2623665589543;Fritsche et al. (2020);Experiment 2;Orientation
1;7;52;162;151.395255502491;1.76773311401485;1;-1;-10.604744497509;Fritsche et al. (2020);Experiment 2;Orientation
1;7;53;95;93.4529852491829;2.65094635972491;1;67;-1.54701475081713;Fritsche et al. (2020);Experiment 2;Orientation
1;7;54;5;6.68780516837697;2.25098636658367;1;90;1.68780516837697;Fritsche et al. (2020);Experiment 2;Orientation
1;7;55;131;136.072209870626;1.1842776695521;-1;54;5.07220987062595;Fritsche et al. (2020);Experiment 2;Orientation
1;7;56;30;31.6307816299443;1.9009917971307;1;-79;1.63078162994432;Fritsche et al. (2020);Experiment 2;Orientation
1;7;57;95;97.6263096416091;1.36763781430636;-1;-65;2.62630964160913;Fritsche et al. (2020);Experiment 2;Orientation
1;7;58;170;168.470460688396;1.13437916776093;-1;-75;-1.52953931160366;Fritsche et al. (2020);Experiment 2;Orientation
1;7;59;79;71.9845123031787;2.06760391452917;-1;-89;-7.01548769682128;Fritsche et al. (2020);Experiment 2;Orientation
1;7;60;118;125.130435958837;1.43431323323603;1;-39;7.1304359588371;Fritsche et al. (2020);Experiment 2;Orientation
1;7;61;108;114.752486821556;2.41768551901623;1;10;6.75248682155579;Fritsche et al. (2020);Experiment 2;Orientation
1;7;62;41;42.7664608607513;2.03431008827465;-1;67;1.76646086075134;Fritsche et al. (2020);Experiment 2;Orientation
1;7;63;12;16.3828231899558;1.45108100803918;-1;29;4.3828231899558;Fritsche et al. (2020);Experiment 2;Orientation
1;7;64;69;53.8453338780381;2.06769972620532;1;-57;-15.1546661219619;Fritsche et al. (2020);Experiment 2;Orientation
1;7;65;43;37.7246521019236;1.33435349608408;-1;26;-5.27534789807643;Fritsche et al. (2020);Experiment 2;Orientation
1;7;66;68;43.1967714231393;1.98432564852919;-1;-25;-24.8032285768607;Fritsche et al. (2020);Experiment 2;Orientation
1;7;67;78;74.9241428542464;1.4177187971145;1;-10;-3.07585714575356;Fritsche et al. (2020);Experiment 2;Orientation
1;7;68;164;159.333855920222;1.30105272165383;-1;-86;-4.66614407977784;Fritsche et al. (2020);Experiment 2;Orientation
1;7;69;68;62.1112144308806;1.9343298722888;-1;-84;-5.88878556911943;Fritsche et al. (2020);Experiment 2;Orientation
1;7;70;17;14.2919899209345;2.00096616202063;1;51;-2.70801007906546;Fritsche et al. (2020);Experiment 2;Orientation
1;7;71;20;21.2803304056624;1.8176034574135;1;-3;1.28033040566238;Fritsche et al. (2020);Experiment 2;Orientation
1;7;72;167;154.519195768174;1.78437582166589;1;33;-12.4808042318262;Fritsche et al. (2020);Experiment 2;Orientation
1;7;73;52;52.0030295991531;1.36772448364718;1;-65;0.0030295991531446;Fritsche et al. (2020);Experiment 2;Orientation
1;7;74;141;132.613711250189;1.35106239424931;-1;-89;-8.3862887498106;Fritsche et al. (2020);Experiment 2;Orientation
1;7;75;39;42.5113227663283;1.01777562587449;1;-78;3.51132276632833;Fritsche et al. (2020);Experiment 2;Orientation
1;7;76;138;139.977794453196;1.00103564377059;-1;81;1.97779445319628;Fritsche et al. (2020);Experiment 2;Orientation
1;7;77;122;114.772910479714;0.934490411702427;-1;16;-7.22708952028596;Fritsche et al. (2020);Experiment 2;Orientation
1;7;78;167;144.751802038514;0.917695209893282;-1;-45;-22.2481979614856;Fritsche et al. (2020);Experiment 2;Orientation
1;7;79;86;92.5138215125312;1.73437126878343;1;81;6.51382151253118;Fritsche et al. (2020);Experiment 2;Orientation
1;7;80;141;146.3875276756;1.31774699208108;1;-55;5.38752767560032;Fritsche et al. (2020);Experiment 2;Orientation
1;7;81;60;58.351212063733;1.78436375378442;-1;81;-1.64878793626703;Fritsche et al. (2020);Experiment 2;Orientation
1;7;82;167;161.997325790471;1.56769698350399;1;73;-5.00267420952912;Fritsche et al. (2020);Experiment 2;Orientation
1;7;83;120;133.93745621203;1.46764692007491;1;47;13.9374562120302;Fritsche et al. (2020);Experiment 2;Orientation
1;7;84;180;2.87760563711163;2.25097064176589;-1;-60;2.87760563711163;Fritsche et al. (2020);Experiment 2;Orientation
1;7;85;37;38.0355133820726;2.13427092251004;1;-37;1.0355133820726;Fritsche et al. (2020);Experiment 2;Orientation
1;7;86;84;76.4447856026117;1.584389059768;-1;-47;-7.55521439738833;Fritsche et al. (2020);Experiment 2;Orientation
1;7;87;2;2.71798191926756;1.88433226758207;-1;82;0.717981919267558;Fritsche et al. (2020);Experiment 2;Orientation
1;7;88;169;171.72396902714;1.26770367569407;-1;13;2.72396902713956;Fritsche et al. (2020);Experiment 2;Orientation
1;7;89;144;145.981217978086;2.0343345897345;1;25;1.98121797808625;Fritsche et al. (2020);Experiment 2;Orientation
1;7;90;86;84.8450310878771;2.30101944355192;1;58;-1.15496891212291;Fritsche et al. (2020);Experiment 2;Orientation
1;7;91;99;107.587867577729;1.38457856210152;-1;-13;8.58786757772941;Fritsche et al. (2020);Experiment 2;Orientation
1;7;92;152;152.224471380169;1.10103560720017;1;-53;0.224471380168893;Fritsche et al. (2020);Experiment 2;Orientation
1;7;93;1;0.503782624450807;2.5493629437733;1;-29;-0.496217375549193;Fritsche et al. (2020);Experiment 2;Orientation
1;7;94;130;48.4282366631075;3.81757968734019;-1;51;-81.5717633368925;Fritsche et al. (2020);Experiment 2;Orientation
1;7;95;72;73.7768122982323;1.18436324181675;1;58;1.77681229823227;Fritsche et al. (2020);Experiment 2;Orientation
1;7;96;110;62.4203797315062;2.31764532930902;-1;-38;-47.5796202684938;Fritsche et al. (2020);Experiment 2;Orientation
1;7;97;151;148.299859162274;1.53431502513558;-1;-41;-2.70014083772554;Fritsche et al. (2020);Experiment 2;Orientation
1;7;98;62;47.2085525817216;2.80105436727536;-1;89;-14.7914474182784;Fritsche et al. (2020);Experiment 2;Orientation
1;7;99;114;122.335159736151;2.28438880378235;-1;-52;8.33515973615104;Fritsche et al. (2020);Experiment 2;Orientation
1;7;100;93;91.5566980300975;1.91767985076513;1;21;-1.44330196990248;Fritsche et al. (2020);Experiment 2;Orientation
1;7;101;163;154.990949061333;0.900833086183411;-1;-70;-8.00905093866675;Fritsche et al. (2020);Experiment 2;Orientation
1;8;1;23;26.2836088236697;2.06767961306832;1;-40;3.28360882366968;Fritsche et al. (2020);Experiment 2;Orientation
1;8;2;56;61.0101388579995;0.984423288671678;-1;-33;5.01013885799946;Fritsche et al. (2020);Experiment 2;Orientation
1;8;3;90;93.390493355647;1.31767531617152;-1;-34;3.39049335564697;Fritsche et al. (2020);Experiment 2;Orientation
1;8;4;170;168.959809466638;1.18432557539199;-1;-80;-1.04019053336245;Fritsche et al. (2020);Experiment 2;Orientation
1;8;5;40;43.579562888862;1.35110152343987;1;-50;3.57956288886203;Fritsche et al. (2020);Experiment 2;Orientation
1;8;6;161;154.777827811899;2.1509790892851;1;59;-6.22217218810056;Fritsche et al. (2020);Experiment 2;Orientation
1;8;7;158;140.201944853958;1.8009764745766;-1;3;-17.7980551460423;Fritsche et al. (2020);Experiment 2;Orientation
1;8;8;139;139.780702895861;1.55105354446641;-1;19;0.780702895860514;Fritsche et al. (2020);Experiment 2;Orientation
1;8;9;129;128.27054399205;1.051084079867;-1;10;-0.729456007949977;Fritsche et al. (2020);Experiment 2;Orientation
1;8;10;27;32.5636058222374;1.8843520150258;1;-78;5.56360582223737;Fritsche et al. (2020);Experiment 2;Orientation
1;8;11;111;116.475522851774;0.984319797433272;1;-84;5.47552285177375;Fritsche et al. (2020);Experiment 2;Orientation
1;8;12;20;22.7872734622453;1.53437426747041;1;-89;2.78727346224527;Fritsche et al. (2020);Experiment 2;Orientation
1;8;13;35;29.8133810581922;1.60103579004863;1;-15;-5.18661894180783;Fritsche et al. (2020);Experiment 2;Orientation
1;8;14;133;132.460367981573;1.06778237292019;-1;82;-0.539632018426829;Fritsche et al. (2020);Experiment 2;Orientation
1;8;15;89;88.9946370715484;1.3676974223381;-1;44;-0.0053629284516461;Fritsche et al. (2020);Experiment 2;Orientation
1;8;16;116;113.036842534261;1.88432897633902;-1;-27;-2.96315746573853;Fritsche et al. (2020);Experiment 2;Orientation
1;8;17;118;122.392149965688;1.5176105152932;-1;-2;4.39214996568779;Fritsche et al. (2020);Experiment 2;Orientation
1;8;18;16;33.8855222712783;1.15105295935427;-1;-78;17.8855222712783;Fritsche et al. (2020);Experiment 2;Orientation
1;8;19;140;146.875938476905;2.53447629593575;1;56;6.87593847690496;Fritsche et al. (2020);Experiment 2;Orientation
1;8;20;101;99.4950501598612;2.20099461297286;1;39;-1.50494984013879;Fritsche et al. (2020);Experiment 2;Orientation
1;8;21;157;154.67442385435;1.81766489390793;-1;-56;-2.32557614565002;Fritsche et al. (2020);Experiment 2;Orientation
1;8;22;45;43.604808916392;1.13437660790805;-1;-68;-1.39519108360803;Fritsche et al. (2020);Experiment 2;Orientation
1;8;23;95;94.6110063088314;0.684368544370955;1;-50;-0.388993691168579;Fritsche et al. (2020);Experiment 2;Orientation
1;8;24;7;16.9320995954843;1.53433294411298;-1;88;9.93209959548432;Fritsche et al. (2020);Experiment 2;Orientation
1;8;25;73;70.1232233744601;2.16754646409026;-1;-66;-2.87677662553995;Fritsche et al. (2020);Experiment 2;Orientation
1;8;26;166;164.891997928947;0.884397726702446;-1;87;-1.10800207105277;Fritsche et al. (2020);Experiment 2;Orientation
1;8;27;33;32.1777369267751;1.70096517465208;1;-47;-0.822263073224903;Fritsche et al. (2020);Experiment 2;Orientation
1;8;28;91;85.7251270138788;1.78428878663181;1;-58;-5.27487298612118;Fritsche et al. (2020);Experiment 2;Orientation
1;8;29;70;67.7964205124177;0.967708905107429;-1;21;-2.20357948758229;Fritsche et al. (2020);Experiment 2;Orientation
1;8;30;127;126.117651164306;2.3175904752934;-1;-57;-0.882348835694359;Fritsche et al. (2020);Experiment 2;Orientation
1;8;31;33;44.4047416269547;1.41768186208355;-1;-86;11.4047416269547;Fritsche et al. (2020);Experiment 2;Orientation
1;8;32;139;130.816046282389;1.60106870245727;1;74;-8.18395371761068;Fritsche et al. (2020);Experiment 2;Orientation
1;8;33;12;16.8650547607949;1.68433490057214;-1;-53;4.86505476079489;Fritsche et al. (2020);Experiment 2;Orientation
1;8;34;55;58.454309593364;1.95104571862612;-1;-43;3.45430959336402;Fritsche et al. (2020);Experiment 2;Orientation
1;8;35;152;141.130525653578;1.75091414213239;1;83;-10.8694743464218;Fritsche et al. (2020);Experiment 2;Orientation
1;8;36;23;29.1141463136603;1.01768017989161;-1;-51;6.11414631366028;Fritsche et al. (2020);Experiment 2;Orientation
1;8;37;156;142.157394279074;1.26767186036523;-1;47;-13.8426057209263;Fritsche et al. (2020);Experiment 2;Orientation
1;8;38;50;32.576295681904;0.884412720133696;1;-74;-17.423704318096;Fritsche et al. (2020);Experiment 2;Orientation
1;8;39;152;148.727447711302;1.23432354579563;-1;78;-3.27255228869799;Fritsche et al. (2020);Experiment 2;Orientation
1;8;40;76;82.4969626573965;1.43437978943984;-1;76;6.49696265739651;Fritsche et al. (2020);Experiment 2;Orientation
1;8;41;37;41.2742267101601;1.4343468770312;1;39;4.27422671016012;Fritsche et al. (2020);Experiment 2;Orientation
1;8;42;2;0.287765037658758;2.4176657715725;-1;35;-1.71223496234124;Fritsche et al. (2020);Experiment 2;Orientation
1;8;43;28;150.946133721982;2.050983879868;1;-26;-57.0538662780183;Fritsche et al. (2020);Experiment 2;Orientation
1;8;44;74;85.2178670671749;2.73420158703448;1;-46;11.2178670671749;Fritsche et al. (2020);Experiment 2;Orientation
1;8;45;60;66.8809114072164;0.651065210084198;1;14;6.88091140721644;Fritsche et al. (2020);Experiment 2;Orientation
1;8;46;132;120.200655764472;1.11794088273382;1;-72;-11.7993442355283;Fritsche et al. (2020);Experiment 2;Orientation
1;8;47;179;176.217809672138;1.50101827333492;-1;-47;-2.78219032786191;Fritsche et al. (2020);Experiment 2;Orientation
1;8;48;82;73.3498281348383;1.20105678085019;-1;-83;-8.65017186516165;Fritsche et al. (2020);Experiment 2;Orientation
1;8;49;25;35.9654252562648;1.00108172114415;-1;57;10.9654252562648;Fritsche et al. (2020);Experiment 2;Orientation
1;8;50;90;89.7049123985941;0.867815358466032;1;-65;-0.295087601405925;Fritsche et al. (2020);Experiment 2;Orientation
1;8;51;168;172.473318534351;1.20100887501394;-1;-78;4.47331853435099;Fritsche et al. (2020);Experiment 2;Orientation
1;8;52;9;4.64145382454457;2.03430606564871;1;-21;-4.35854617545543;Fritsche et al. (2020);Experiment 2;Orientation
1;8;53;119;126.677926991905;1.58438320867572;1;70;7.67792699190497;Fritsche et al. (2020);Experiment 2;Orientation
1;8;54;165;147.080774305384;1.4010581704897;-1;-46;-17.9192256946159;Fritsche et al. (2020);Experiment 2;Orientation
1;8;55;106;112.47776670609;1.43436260184899;1;59;6.47776670609008;Fritsche et al. (2020);Experiment 2;Orientation
1;8;56;76;79.6139349355212;0.651083494754857;-1;30;3.6139349355212;Fritsche et al. (2020);Experiment 2;Orientation
1;8;57;1;0.847098729995949;1.41772976791981;1;75;-0.152901270004051;Fritsche et al. (2020);Experiment 2;Orientation
1;8;58;65;40.2273698244238;0.934409593453893;1;-64;-24.7726301755762;Fritsche et al. (2020);Experiment 2;Orientation
1;8;59;133;136.502236682302;1.56762750175403;-1;-68;3.50223668230169;Fritsche et al. (2020);Experiment 2;Orientation
1;8;60;60;54.2512927358845;1.90093474895548;1;73;-5.74870726411549;Fritsche et al. (2020);Experiment 2;Orientation
1;8;61;159;153.961025025739;0.667740830143885;1;81;-5.03897497426144;Fritsche et al. (2020);Experiment 2;Orientation
1;8;62;20;40.7974391029132;2.10096868530673;-1;-41;20.7974391029132;Fritsche et al. (2020);Experiment 2;Orientation
1;8;63;147;152.217967535401;2.36781444423104;-1;53;5.21796753540087;Fritsche et al. (2020);Experiment 2;Orientation
1;8;64;70;66.1096233635672;1.56770795430566;1;77;-3.89037663643276;Fritsche et al. (2020);Experiment 2;Orientation
1;8;65;12;6.07211088304987;1.21763695493064;1;58;-5.92788911695013;Fritsche et al. (2020);Experiment 2;Orientation
1;8;66;156;143.176605010646;0.734446967322583;1;36;-12.8233949893543;Fritsche et al. (2020);Experiment 2;Orientation
1;8;67;118;116.291185293282;1.70092092574487;1;38;-1.70881470671767;Fritsche et al. (2020);Experiment 2;Orientation
1;8;68;135;122.501600551783;1.20107067720164;-1;-17;-12.4983994482172;Fritsche et al. (2020);Experiment 2;Orientation
1;8;69;63;58.5809227184727;2.01771857770291;-1;72;-4.4190772815273;Fritsche et al. (2020);Experiment 2;Orientation
1;8;70;50;60.4652173242421;0.901071883992699;-1;13;10.4652173242421;Fritsche et al. (2020);Experiment 2;Orientation
1;8;71;144;139.072660770841;0.53446825068022;1;86;-4.92733922915906;Fritsche et al. (2020);Experiment 2;Orientation
1;8;72;60;60.8154303426291;1.60100434041306;1;84;0.815430342629128;Fritsche et al. (2020);Experiment 2;Orientation
1;8;73;8;6.67868264185739;0.884371396779898;1;52;-1.32131735814261;Fritsche et al. (2020);Experiment 2;Orientation
1;8;74;18;16.9317607202937;1.33430668732763;-1;-10;-1.06823927970629;Fritsche et al. (2020);Experiment 2;Orientation
1;8;75;118;112.750767938954;1.5343088083464;1;80;-5.24923206104577;Fritsche et al. (2020);Experiment 2;Orientation
1;8;76;58;49.6002508240119;1.2343663319225;1;60;-8.39974917598813;Fritsche et al. (2020);Experiment 2;Orientation
1;8;77;111;110.618942631368;1.30106844647162;1;-53;-0.381057368632071;Fritsche et al. (2020);Experiment 2;Orientation
1;8;78;32;23.0612638207547;0.567828267441655;1;79;-8.9387361792453;Fritsche et al. (2020);Experiment 2;Orientation
1;8;79;28;25.7568138458073;0.867745511022804;1;4;-2.24318615419266;Fritsche et al. (2020);Experiment 2;Orientation
1;8;80;142;149.129689505054;0.71774392025327;-1;66;7.12968950505382;Fritsche et al. (2020);Experiment 2;Orientation
1;8;81;87;89.8606825825915;0.867765258466534;1;55;2.86068258259145;Fritsche et al. (2020);Experiment 2;Orientation
1;8;82;30;40.8640070217345;0.701084756401542;-1;57;10.8640070217345;Fritsche et al. (2020);Experiment 2;Orientation
1;8;83;28;25.7526339820524;1.23446616622459;1;2;-2.24736601794763;Fritsche et al. (2020);Experiment 2;Orientation
1;8;84;132;140.26897175238;0.934345962799853;-1;76;8.26897175237966;Fritsche et al. (2020);Experiment 2;Orientation
1;8;85;23;31.2112753051959;2.28429774612232;-1;-71;8.21127530519593;Fritsche et al. (2020);Experiment 2;Orientation
1;8;86;89;87.8644667224814;1.5510297743931;-1;-66;-1.13553327751858;Fritsche et al. (2020);Experiment 2;Orientation
1;8;87;66;63.7786714845018;0.634504783451121;1;23;-2.2213285154982;Fritsche et al. (2020);Experiment 2;Orientation
1;8;88;21;29.4937694843486;1.9509780653425;1;45;8.49376948434863;Fritsche et al. (2020);Experiment 2;Orientation
1;8;89;9;23.3229463985247;0.867738928540348;-1;12;14.3229463985247;Fritsche et al. (2020);Experiment 2;Orientation
1;8;90;133;133.122736702692;0.701104138148366;-1;56;0.122736702692009;Fritsche et al. (2020);Experiment 2;Orientation
1;8;91;163;164.522906554939;1.01770980105721;-1;-30;1.52290655493888;Fritsche et al. (2020);Experiment 2;Orientation
1;8;92;69;64.5838651153287;1.73438809068102;1;-86;-4.41613488467132;Fritsche et al. (2020);Experiment 2;Orientation
1;8;93;1;170.727581645516;2.03427425031623;-1;68;-10.2724183544839;Fritsche et al. (2020);Experiment 2;Orientation
1;8;94;14;16.9093735339659;1.00089229194782;1;-13;2.90937353396588;Fritsche et al. (2020);Experiment 2;Orientation
1;8;95;107;116.14871369919;1.96761748175413;-1;87;9.14871369919001;Fritsche et al. (2020);Experiment 2;Orientation
1;8;96;169;163.995802430647;1.26769343627893;1;-62;-5.00419756935338;Fritsche et al. (2020);Experiment 2;Orientation
1;8;97;66;65.5294028803706;2.16755012102658;-1;-77;-0.470597119629375;Fritsche et al. (2020);Experiment 2;Orientation
1;8;98;127;119.820837128027;2.15100139658534;1;-61;-7.17916287197275;Fritsche et al. (2020);Experiment 2;Orientation
1;8;99;9;9.14349802416767;0.967655513868522;1;-62;0.14349802416767;Fritsche et al. (2020);Experiment 2;Orientation
1;8;100;124;120.097319295389;1.01784437623792;1;65;-3.90268070461138;Fritsche et al. (2020);Experiment 2;Orientation
1;8;101;147;133.965903533689;0.834420235136349;1;-23;-13.0340964663108;Fritsche et al. (2020);Experiment 2;Orientation
2;1;1;143;152.299696726977;1.95802681792657;-1;NaN;9.29969672697746;Fritsche et al. (2020);Experiment 2;Orientation
2;1;2;70;53.5846261210973;2.83434727989879;1;73;-16.4153738789027;Fritsche et al. (2020);Experiment 2;Orientation
2;1;3;143;156.143410538912;1.51756550423988;1;-73;13.1434105389119;Fritsche et al. (2020);Experiment 2;Orientation
2;1;4;75;61.0748143237514;1.68435742850716;-1;68;-13.9251856762486;Fritsche et al. (2020);Experiment 2;Orientation
2;1;5;41;46.6334118984347;1.78444538311487;1;34;5.63341189843469;Fritsche et al. (2020);Experiment 2;Orientation
2;1;6;144;150.58947999795;1.73431637692875;-1;77;6.58947999795018;Fritsche et al. (2020);Experiment 2;Orientation
2;1;7;142;49.5913289260152;1.83421964514628;1;2;87.5913289260152;Fritsche et al. (2020);Experiment 2;Orientation
2;1;8;99;109.048310006829;0.984536812020451;1;43;10.0483100068291;Fritsche et al. (2020);Experiment 2;Orientation
2;1;9;5;10.1999065790404;3.18427495963442;-1;-86;5.1999065790404;Fritsche et al. (2020);Experiment 2;Orientation
2;1;10;30;80.6115109268633;1.15105664386419;-1;-25;50.6115109268633;Fritsche et al. (2020);Experiment 2;Orientation
2;1;11;114;136.066726374864;1.60094830061098;1;-84;22.0667263748637;Fritsche et al. (2020);Experiment 2;Orientation
2;1;12;170;173.083953050689;1.41770685332813;1;-56;3.08395305068919;Fritsche et al. (2020);Experiment 2;Orientation
2;1;13;86;70.3635387643499;1.75096814068365;1;84;-15.6364612356501;Fritsche et al. (2020);Experiment 2;Orientation
2;1;14;161;163.019213668785;2.65095954636627;-1;-75;2.01921366878497;Fritsche et al. (2020);Experiment 2;Orientation
2;1;15;162;35.7655340654022;6.43404044449062;-1;-1;53.7655340654022;Fritsche et al. (2020);Experiment 2;Orientation
2;1;16;113;118.575421697906;1.86774881919564;1;49;5.57542169790599;Fritsche et al. (2020);Experiment 2;Orientation
2;1;17;41;30.3397024882666;2.35091913479027;-1;72;-10.6602975117334;Fritsche et al. (2020);Experiment 2;Orientation
2;1;18;87;69.3460374937408;3.56754566416703;1;-46;-17.6539625062592;Fritsche et al. (2020);Experiment 2;Orientation
2;1;19;175;166.4789493691;1.71771215620447;-1;-88;-8.52105063090002;Fritsche et al. (2020);Experiment 2;Orientation
2;1;20;27;28.6524087877845;1.684428011622;1;-32;1.65240878778446;Fritsche et al. (2020);Experiment 2;Orientation
2;1;21;19;171.99095382238;2.33431089119404;-1;8;-27.0090461776198;Fritsche et al. (2020);Experiment 2;Orientation
2;1;22;144;153.825435454119;2.13438732575969;-1;55;9.82543545411937;Fritsche et al. (2020);Experiment 2;Orientation
2;1;23;76;72.4336358643878;1.88425649099509;1;68;-3.56636413561218;Fritsche et al. (2020);Experiment 2;Orientation
2;1;24;49;37.6923600757827;2.90107904394654;-1;27;-11.3076399242173;Fritsche et al. (2020);Experiment 2;Orientation
2;1;25;144;152.329335670818;2.01753935557235;-1;85;8.32933567081818;Fritsche et al. (2020);Experiment 2;Orientation
2;1;26;71;44.5585034664962;1.36774132202527;-1;73;-26.4414965335038;Fritsche et al. (2020);Experiment 2;Orientation
2;1;27;82;67.0189064196566;1.06774918491101;1;-11;-14.9810935803434;Fritsche et al. (2020);Experiment 2;Orientation
2;1;28;116;130.57298557934;1.68419907364205;1;-34;14.57298557934;Fritsche et al. (2020);Experiment 2;Orientation
2;1;29;87;65.0005563980217;1.40109166113507;1;29;-21.9994436019783;Fritsche et al. (2020);Experiment 2;Orientation
2;1;30;14;21.5771572696046;1.05108644968777;1;73;7.57715726960463;Fritsche et al. (2020);Experiment 2;Orientation
2;1;31;143;138.739795338701;1.61767649893136;1;51;-4.26020466129899;Fritsche et al. (2020);Experiment 2;Orientation
2;1;32;21;22.0970872785015;1.100990906481;-1;-58;1.09708727850148;Fritsche et al. (2020);Experiment 2;Orientation
2;1;33;176;165.939582552815;1.71768509324829;-1;25;-10.0604174471853;Fritsche et al. (2020);Experiment 2;Orientation
2;1;34;17;19.9962283235017;1.95093266626782;-1;-21;2.99622832350174;Fritsche et al. (2020);Experiment 2;Orientation
2;1;35;147;150.37008203962;1.03441530300461;-1;50;3.37008203962012;Fritsche et al. (2020);Experiment 2;Orientation
2;1;36;26;24.9710949947686;1.98435102848362;1;-59;-1.02890500523139;Fritsche et al. (2020);Experiment 2;Orientation
2;1;37;7;12.2076004901473;1.40094683774851;-1;19;5.20760049014733;Fritsche et al. (2020);Experiment 2;Orientation
2;1;38;166;151.568757369511;1.40112055266945;1;21;-14.4312426304886;Fritsche et al. (2020);Experiment 2;Orientation
2;1;39;138;138.984508975456;0.850983317881855;-1;28;0.984508975456009;Fritsche et al. (2020);Experiment 2;Orientation
2;1;40;55;42.6957776319938;1.06775467064563;1;83;-12.3042223680062;Fritsche et al. (2020);Experiment 2;Orientation
2;1;41;47;50.866314405693;1.00102985519516;1;8;3.86631440569304;Fritsche et al. (2020);Experiment 2;Orientation
2;1;42;115;115.826010675595;1.80096036922669;1;-68;0.826010675594588;Fritsche et al. (2020);Experiment 2;Orientation
2;1;43;18;29.2658902244662;2.734232993766;-1;-83;11.2658902244662;Fritsche et al. (2020);Experiment 2;Orientation
2;1;44;155;160.94953438644;1.58434773704312;1;43;5.94953438643955;Fritsche et al. (2020);Experiment 2;Orientation
2;1;45;13;25.2063433136578;1.75104640382688;-1;-38;12.2063433136578;Fritsche et al. (2020);Experiment 2;Orientation
2;1;46;52;49.790880780408;0.851177878593262;-1;-39;-2.20911921959199;Fritsche et al. (2020);Experiment 2;Orientation
2;1;47;1;8.90140524471255;2.48460099511203;1;51;7.90140524471255;Fritsche et al. (2020);Experiment 2;Orientation
2;1;48;124;123.905198960332;2.35096667782091;1;57;-0.0948010396677432;Fritsche et al. (2020);Experiment 2;Orientation
